File: data/DSC-TGA/coated-oven.csv
Filename,MLCS 8485 oven coated
Instrument name,SDT 1 LEFT (192.168.0.183)
Operator,dAA
rundate,10/24/2023
Sample name,MLCS 8485 oven coated
proceduresegments,Data Off ; Select Gas: Gas 2 ; Balance Flow 100 mL/min; Mass Flow  100.00 mL/min; Isothermal 10.0 min; Data On ; Ramp 10.00 °C/min to 500.00 °C; Data Off
[step]
Ramp 10.00 °C/min to 500.00 °C
Time,Temperature,Heat Flow (Normalized),Weight
min,°C,W/g,%
0.00,27.22,-0.004,99.595
0.03,27.22,-0.004,99.594
0.07,27.22,-0.004,99.593
0.10,27.22,-0.004,99.592
0.13,27.21,-0.004,99.591
0.17,27.21,-0.004,99.590
0.20,27.21,-0.004,99.590
0.23,27.21,-0.004,99.589
0.27,27.20,-0.004,99.588
0.30,27.20,-0.004,99.587
0.33,27.20,-0.004,99.586
0.37,27.19,-0.004,99.585
0.40,27.19,-0.004,99.585
0.43,27.19,-0.004,99.584
0.47,27.20,-0.004,99.583
0.50,27.20,-0.004,99.582
0.53,27.21,-0.004,99.582
0.57,27.22,-0.003,99.581
0.60,27.25,-0.003,99.580
0.63,27.28,-0.003,99.580
0.67,27.32,-0.003,99.579
0.70,27.37,-0.003,99.579
0.73,27.43,-0.003,99.578
0.77,27.50,-0.004,99.578
0.80,27.58,-0.006,99.577
0.83,27.66,-0.009,99.577
0.87,27.76,-0.012,99.576
0.90,27.87,-0.017,99.575
0.93,27.99,-0.022,99.573
0.97,28.11,-0.027,99.571
1.00,28.25,-0.033,99.568
1.03,28.41,-0.040,99.565
1.07,28.57,-0.046,99.561
1.10,28.74,-0.053,99.557
1.13,28.93,-0.060,99.552
1.17,29.13,-0.067,99.548
1.20,29.34,-0.075,99.544
1.23,29.56,-0.082,99.540
1.27,29.80,-0.090,99.536
1.30,30.04,-0.098,99.532
1.33,30.29,-0.106,99.528
1.37,30.56,-0.113,99.525
1.40,30.83,-0.121,99.522
1.43,31.11,-0.128,99.519
1.47,31.40,-0.136,99.516
1.50,31.71,-0.143,99.514
1.53,32.01,-0.151,99.511
1.57,32.33,-0.158,99.509
1.60,32.65,-0.166,99.507
1.63,32.98,-0.174,99.504
1.67,33.32,-0.181,99.502
1.70,33.66,-0.189,99.500
1.73,34.00,-0.198,99.498
1.77,34.35,-0.206,99.497
1.80,34.70,-0.215,99.495
1.83,35.06,-0.223,99.493
1.87,35.42,-0.232,99.491
1.90,35.78,-0.241,99.490
1.93,36.14,-0.250,99.489
1.97,36.51,-0.259,99.487
2.00,36.88,-0.268,99.486
2.03,37.25,-0.277,99.485
2.07,37.62,-0.285,99.484
2.10,37.99,-0.293,99.483
2.13,38.36,-0.302,99.482
2.17,38.74,-0.310,99.481
2.20,39.11,-0.317,99.480
2.23,39.48,-0.325,99.479
2.27,39.86,-0.332,99.478
2.30,40.23,-0.339,99.478
2.33,40.60,-0.346,99.477
2.37,40.97,-0.352,99.476
2.40,41.34,-0.358,99.475
2.43,41.71,-0.363,99.474
2.47,42.08,-0.368,99.473
2.50,42.45,-0.374,99.472
2.53,42.82,-0.378,99.471
2.57,43.18,-0.383,99.469
2.60,43.55,-0.387,99.468
2.63,43.91,-0.390,99.467
2.67,44.27,-0.393,99.466
2.70,44.63,-0.397,99.464
2.73,44.99,-0.399,99.463
2.77,45.34,-0.402,99.461
2.80,45.70,-0.404,99.460
2.83,46.05,-0.406,99.458
2.87,46.40,-0.408,99.456
2.90,46.75,-0.410,99.455
2.93,47.10,-0.411,99.453
2.97,47.45,-0.411,99.451
3.00,47.79,-0.412,99.449
3.03,48.13,-0.412,99.447
3.07,48.48,-0.412,99.445
3.10,48.82,-0.413,99.443
3.13,49.16,-0.413,99.441
3.17,49.50,-0.412,99.439
3.20,49.83,-0.412,99.437
3.23,50.17,-0.411,99.435
3.27,50.50,-0.410,99.432
3.30,50.83,-0.409,99.430
3.33,51.17,-0.408,99.427
3.37,51.50,-0.406,99.425
3.40,51.83,-0.404,99.422
3.43,52.16,-0.402,99.420
3.47,52.49,-0.399,99.417
3.50,52.82,-0.397,99.414
3.53,53.14,-0.395,99.411
3.57,53.47,-0.392,99.408
3.60,53.80,-0.390,99.405
3.63,54.12,-0.387,99.402
3.67,54.45,-0.384,99.399
3.70,54.77,-0.382,99.396
3.73,55.10,-0.379,99.393
3.77,55.42,-0.376,99.390
3.80,55.75,-0.372,99.386
3.83,56.07,-0.369,99.383
3.87,56.40,-0.366,99.380
3.90,56.72,-0.363,99.376
3.93,57.04,-0.360,99.373
3.97,57.37,-0.357,99.369
4.00,57.69,-0.353,99.365
4.03,58.02,-0.350,99.362
4.07,58.34,-0.347,99.358
4.10,58.66,-0.344,99.354
4.13,58.99,-0.341,99.350
4.17,59.31,-0.338,99.346
4.20,59.64,-0.334,99.342
4.23,59.96,-0.331,99.338
4.27,60.29,-0.328,99.335
4.30,60.61,-0.325,99.330
4.33,60.94,-0.322,99.326
4.37,61.26,-0.319,99.322
4.40,61.59,-0.316,99.318
4.43,61.92,-0.313,99.314
4.47,62.24,-0.310,99.309
4.50,62.57,-0.307,99.305
4.53,62.90,-0.305,99.301
4.57,63.23,-0.302,99.296
4.60,63.55,-0.299,99.292
4.63,63.88,-0.297,99.288
4.67,64.21,-0.294,99.283
4.70,64.54,-0.291,99.278
4.73,64.87,-0.289,99.274
4.77,65.20,-0.286,99.269
4.80,65.53,-0.284,99.264
4.83,65.86,-0.282,99.260
4.87,66.19,-0.279,99.255
4.90,66.52,-0.277,99.250
4.93,66.84,-0.275,99.245
4.97,67.17,-0.273,99.240
5.00,67.51,-0.271,99.235
5.03,67.84,-0.269,99.230
5.07,68.17,-0.267,99.225
5.10,68.50,-0.264,99.220
5.13,68.83,-0.262,99.215
5.17,69.16,-0.261,99.210
5.20,69.49,-0.259,99.204
5.23,69.82,-0.257,99.199
5.27,70.16,-0.255,99.194
5.30,70.49,-0.253,99.189
5.33,70.82,-0.251,99.183
5.37,71.15,-0.250,99.178
5.40,71.48,-0.248,99.172
5.43,71.82,-0.247,99.167
5.47,72.15,-0.245,99.161
5.50,72.48,-0.244,99.156
5.53,72.81,-0.242,99.150
5.57,73.15,-0.240,99.144
5.60,73.48,-0.239,99.138
5.63,73.81,-0.237,99.133
5.67,74.15,-0.236,99.127
5.70,74.48,-0.235,99.121
5.73,74.81,-0.233,99.115
5.77,75.14,-0.232,99.109
5.80,75.48,-0.231,99.103
5.83,75.81,-0.229,99.097
5.87,76.14,-0.228,99.091
5.90,76.48,-0.227,99.085
5.93,76.81,-0.226,99.079
5.97,77.14,-0.225,99.073
6.00,77.48,-0.224,99.067
6.03,77.81,-0.222,99.061
6.07,78.14,-0.221,99.054
6.10,78.48,-0.220,99.048
6.13,78.81,-0.219,99.041
6.17,79.14,-0.218,99.035
6.20,79.48,-0.217,99.029
6.23,79.81,-0.216,99.022
6.27,80.14,-0.215,99.016
6.30,80.47,-0.214,99.009
6.33,80.81,-0.213,99.002
6.37,81.14,-0.212,98.996
6.40,81.47,-0.211,98.989
6.43,81.80,-0.210,98.982
6.47,82.14,-0.210,98.976
6.50,82.47,-0.209,98.969
6.53,82.80,-0.208,98.962
6.57,83.14,-0.207,98.955
6.60,83.47,-0.206,98.948
6.63,83.80,-0.206,98.941
6.67,84.13,-0.205,98.934
6.70,84.46,-0.204,98.927
6.73,84.79,-0.204,98.920
6.77,85.13,-0.203,98.913
6.80,85.46,-0.202,98.906
6.83,85.79,-0.201,98.899
6.87,86.13,-0.200,98.892
6.90,86.46,-0.200,98.885
6.93,86.79,-0.199,98.878
6.97,87.12,-0.198,98.870
7.00,87.45,-0.198,98.863
7.03,87.78,-0.197,98.856
7.07,88.11,-0.197,98.848
7.10,88.45,-0.196,98.841
7.13,88.78,-0.196,98.834
7.17,89.11,-0.195,98.826
7.20,89.44,-0.194,98.819
7.23,89.77,-0.194,98.811
7.27,90.10,-0.193,98.804
7.30,90.43,-0.193,98.796
7.33,90.77,-0.193,98.789
7.37,91.10,-0.192,98.781
7.40,91.43,-0.192,98.774
7.43,91.76,-0.191,98.766
7.47,92.09,-0.191,98.758
7.50,92.42,-0.190,98.751
7.53,92.76,-0.190,98.743
7.57,93.09,-0.189,98.735
7.60,93.42,-0.188,98.728
7.63,93.75,-0.188,98.720
7.67,94.08,-0.187,98.712
7.70,94.41,-0.187,98.704
7.73,94.74,-0.187,98.697
7.77,95.08,-0.186,98.689
7.80,95.41,-0.186,98.681
7.83,95.74,-0.186,98.673
7.87,96.07,-0.185,98.665
7.90,96.40,-0.185,98.657
7.93,96.73,-0.184,98.649
7.97,97.07,-0.184,98.641
8.00,97.40,-0.183,98.633
8.03,97.73,-0.183,98.625
8.07,98.06,-0.183,98.617
8.10,98.39,-0.183,98.609
8.13,98.72,-0.182,98.601
8.17,99.05,-0.182,98.593
8.20,99.39,-0.182,98.585
8.23,99.72,-0.181,98.577
8.27,100.05,-0.181,98.569
8.30,100.38,-0.181,98.561
8.33,100.71,-0.181,98.553
8.37,101.04,-0.180,98.544
8.40,101.38,-0.180,98.536
8.43,101.71,-0.180,98.528
8.47,102.04,-0.180,98.520
8.50,102.37,-0.179,98.512
8.53,102.70,-0.179,98.504
8.57,103.03,-0.179,98.496
8.60,103.37,-0.178,98.488
8.63,103.70,-0.178,98.479
8.67,104.03,-0.178,98.471
8.70,104.36,-0.177,98.463
8.73,104.69,-0.177,98.455
8.77,105.03,-0.177,98.447
8.80,105.36,-0.177,98.439
8.83,105.69,-0.177,98.431
8.87,106.02,-0.176,98.422
8.90,106.35,-0.176,98.414
8.93,106.68,-0.176,98.406
8.97,107.02,-0.176,98.398
9.00,107.35,-0.175,98.389
9.03,107.68,-0.175,98.381
9.07,108.01,-0.175,98.373
9.10,108.35,-0.175,98.365
9.13,108.68,-0.175,98.357
9.17,109.01,-0.174,98.349
9.20,109.34,-0.174,98.341
9.23,109.68,-0.174,98.332
9.27,110.01,-0.174,98.324
9.30,110.34,-0.173,98.316
9.33,110.67,-0.173,98.308
9.37,111.00,-0.173,98.300
9.40,111.34,-0.172,98.292
9.43,111.67,-0.172,98.284
9.47,112.00,-0.172,98.276
9.50,112.33,-0.171,98.268
9.53,112.67,-0.171,98.260
9.57,113.00,-0.171,98.252
9.60,113.33,-0.171,98.244
9.63,113.66,-0.170,98.236
9.67,114.00,-0.170,98.228
9.70,114.33,-0.170,98.220
9.73,114.66,-0.170,98.212
9.77,114.99,-0.169,98.204
9.80,115.33,-0.169,98.196
9.83,115.66,-0.169,98.188
9.87,115.99,-0.168,98.180
9.90,116.32,-0.168,98.172
9.93,116.66,-0.168,98.164
9.97,116.99,-0.168,98.157
10.00,117.32,-0.168,98.149
10.03,117.65,-0.167,98.141
10.07,117.99,-0.167,98.133
10.10,118.32,-0.167,98.125
10.13,118.65,-0.166,98.118
10.17,118.98,-0.166,98.110
10.20,119.32,-0.166,98.102
10.23,119.65,-0.165,98.094
10.27,119.98,-0.165,98.087
10.30,120.31,-0.165,98.079
10.33,120.65,-0.164,98.071
10.37,120.98,-0.164,98.064
10.40,121.31,-0.164,98.056
10.43,121.64,-0.164,98.049
10.47,121.98,-0.163,98.041
10.50,122.31,-0.163,98.034
10.53,122.64,-0.163,98.026
10.57,122.97,-0.162,98.019
10.60,123.31,-0.162,98.011
10.63,123.64,-0.161,98.004
10.67,123.97,-0.161,97.996
10.70,124.30,-0.161,97.989
10.73,124.64,-0.160,97.982
10.77,124.97,-0.160,97.974
10.80,125.30,-0.159,97.967
10.83,125.63,-0.159,97.960
10.87,125.96,-0.159,97.953
10.90,126.30,-0.158,97.945
10.93,126.63,-0.158,97.938
10.97,126.96,-0.158,97.931
11.00,127.29,-0.157,97.924
11.03,127.63,-0.156,97.917
11.07,127.96,-0.156,97.910
11.10,128.29,-0.156,97.903
11.13,128.62,-0.155,97.896
11.17,128.96,-0.155,97.889
11.20,129.29,-0.154,97.882
11.23,129.62,-0.154,97.875
11.27,129.96,-0.153,97.869
11.30,130.29,-0.153,97.862
11.33,130.62,-0.152,97.855
11.37,130.95,-0.152,97.848
11.40,131.29,-0.151,97.842
11.43,131.62,-0.151,97.835
11.47,131.95,-0.150,97.828
11.50,132.28,-0.149,97.822
11.53,132.61,-0.149,97.815
11.57,132.95,-0.148,97.809
11.60,133.28,-0.148,97.802
11.63,133.61,-0.147,97.796
11.67,133.95,-0.146,97.789
11.70,134.28,-0.146,97.783
11.73,134.61,-0.145,97.777
11.77,134.94,-0.145,97.771
11.80,135.28,-0.144,97.764
11.83,135.61,-0.144,97.758
11.87,135.94,-0.143,97.752
11.90,136.27,-0.143,97.746
11.93,136.61,-0.142,97.740
11.97,136.94,-0.142,97.734
12.00,137.27,-0.141,97.727
12.03,137.60,-0.141,97.722
12.07,137.94,-0.140,97.716
12.10,138.27,-0.139,97.710
12.13,138.60,-0.139,97.704
12.17,138.94,-0.138,97.698
12.20,139.27,-0.137,97.692
12.23,139.60,-0.136,97.686
12.27,139.93,-0.136,97.681
12.30,140.27,-0.135,97.675
12.33,140.60,-0.134,97.669
12.37,140.93,-0.133,97.664
12.40,141.26,-0.133,97.658
12.43,141.60,-0.132,97.653
12.47,141.93,-0.131,97.647
12.50,142.26,-0.131,97.642
12.53,142.60,-0.130,97.636
12.57,142.93,-0.130,97.631
12.60,143.26,-0.129,97.626
12.63,143.59,-0.129,97.620
12.67,143.93,-0.128,97.615
12.70,144.26,-0.127,97.610
12.73,144.59,-0.126,97.604
12.77,144.92,-0.126,97.599
12.80,145.26,-0.125,97.594
12.83,145.59,-0.124,97.589
12.87,145.92,-0.123,97.584
12.90,146.25,-0.122,97.579
12.93,146.59,-0.122,97.574
12.97,146.92,-0.121,97.569
13.00,147.25,-0.120,97.565
13.03,147.58,-0.119,97.560
13.07,147.92,-0.118,97.555
13.10,148.25,-0.117,97.550
13.13,148.58,-0.116,97.546
13.17,148.92,-0.116,97.541
13.20,149.25,-0.115,97.536
13.23,149.58,-0.114,97.532
13.27,149.91,-0.113,97.527
13.30,150.25,-0.112,97.523
13.33,150.58,-0.111,97.518
13.37,150.91,-0.110,97.514
13.40,151.25,-0.109,97.510
13.43,151.58,-0.108,97.505
13.47,151.91,-0.108,97.501
13.50,152.24,-0.107,97.497
13.53,152.57,-0.106,97.493
13.57,152.91,-0.105,97.488
13.60,153.24,-0.104,97.484
13.63,153.57,-0.103,97.480
13.67,153.90,-0.102,97.476
13.70,154.24,-0.102,97.472
13.73,154.57,-0.100,97.468
13.77,154.90,-0.099,97.464
13.80,155.23,-0.099,97.460
13.83,155.57,-0.098,97.456
13.87,155.90,-0.096,97.453
13.90,156.23,-0.095,97.449
13.93,156.57,-0.094,97.445
13.97,156.90,-0.093,97.441
14.00,157.23,-0.092,97.438
14.03,157.56,-0.091,97.434
14.07,157.90,-0.090,97.430
14.10,158.23,-0.089,97.427
14.13,158.56,-0.088,97.423
14.17,158.89,-0.087,97.420
14.20,159.23,-0.086,97.416
14.23,159.56,-0.085,97.413
14.27,159.89,-0.084,97.410
14.30,160.22,-0.083,97.406
14.33,160.56,-0.082,97.403
14.37,160.89,-0.081,97.400
14.40,161.22,-0.080,97.396
14.43,161.55,-0.079,97.393
14.47,161.89,-0.078,97.390
14.50,162.22,-0.077,97.387
14.53,162.55,-0.077,97.384
14.57,162.88,-0.076,97.381
14.60,163.22,-0.074,97.378
14.63,163.55,-0.073,97.375
14.67,163.88,-0.072,97.372
14.70,164.22,-0.071,97.369
14.73,164.55,-0.070,97.366
14.77,164.88,-0.069,97.363
14.80,165.21,-0.068,97.360
14.83,165.54,-0.067,97.357
14.87,165.88,-0.067,97.355
14.90,166.21,-0.066,97.352
14.93,166.54,-0.064,97.349
14.97,166.87,-0.063,97.347
15.00,167.20,-0.062,97.344
15.03,167.54,-0.061,97.341
15.07,167.87,-0.060,97.339
15.10,168.20,-0.059,97.336
15.13,168.53,-0.058,97.334
15.17,168.86,-0.057,97.331
15.20,169.20,-0.056,97.328
15.23,169.53,-0.055,97.326
15.27,169.86,-0.055,97.323
15.30,170.19,-0.054,97.321
15.33,170.52,-0.053,97.319
15.37,170.86,-0.052,97.316
15.40,171.19,-0.051,97.314
15.43,171.52,-0.050,97.311
15.47,171.85,-0.048,97.309
15.50,172.19,-0.047,97.307
15.53,172.52,-0.046,97.305
15.57,172.85,-0.045,97.302
15.60,173.18,-0.044,97.300
15.63,173.51,-0.043,97.298
15.67,173.85,-0.042,97.296
15.70,174.18,-0.041,97.294
15.73,174.51,-0.040,97.291
15.77,174.84,-0.039,97.289
15.80,175.17,-0.038,97.287
15.83,175.51,-0.037,97.285
15.87,175.84,-0.036,97.283
15.90,176.17,-0.035,97.281
15.93,176.50,-0.033,97.279
15.97,176.83,-0.032,97.277
16.00,177.17,-0.032,97.275
16.03,177.50,-0.030,97.273
16.07,177.83,-0.029,97.271
16.10,178.16,-0.028,97.270
16.13,178.50,-0.027,97.268
16.17,178.83,-0.026,97.266
16.20,179.16,-0.025,97.264
16.23,179.49,-0.024,97.262
16.27,179.82,-0.023,97.260
16.30,180.16,-0.022,97.258
16.33,180.49,-0.021,97.257
16.37,180.82,-0.020,97.255
16.40,181.15,-0.019,97.253
16.43,181.48,-0.018,97.251
16.47,181.82,-0.017,97.249
16.50,182.15,-0.016,97.248
16.53,182.48,-0.015,97.246
16.57,182.81,-0.014,97.244
16.60,183.15,-0.013,97.243
16.63,183.48,-0.012,97.241
16.67,183.81,-0.011,97.239
16.70,184.14,-0.010,97.237
16.73,184.47,-0.009,97.236
16.77,184.81,-0.008,97.234
16.80,185.14,-0.007,97.232
16.83,185.47,-0.006,97.231
16.87,185.80,-0.005,97.229
16.90,186.13,-0.005,97.228
16.93,186.46,-0.004,97.226
16.97,186.80,-0.003,97.224
17.00,187.13,-0.002,97.223
17.03,187.46,-0.001,97.221
17.07,187.79,0.000,97.220
17.10,188.13,0.001,97.218
17.13,188.46,0.002,97.216
17.17,188.79,0.003,97.215
17.20,189.12,0.004,97.213
17.23,189.45,0.005,97.212
17.27,189.79,0.005,97.210
17.30,190.12,0.006,97.208
17.33,190.45,0.007,97.207
17.37,190.78,0.008,97.205
17.40,191.11,0.009,97.204
17.43,191.45,0.010,97.202
17.47,191.78,0.011,97.201
17.50,192.11,0.013,97.199
17.53,192.44,0.014,97.198
17.57,192.78,0.014,97.196
17.60,193.11,0.015,97.194
17.63,193.44,0.016,97.193
17.67,193.77,0.016,97.191
17.70,194.10,0.017,97.190
17.73,194.43,0.019,97.188
17.77,194.77,0.020,97.187
17.80,195.10,0.021,97.185
17.83,195.43,0.021,97.183
17.87,195.76,0.022,97.182
17.90,196.09,0.023,97.180
17.93,196.42,0.024,97.178
17.97,196.76,0.025,97.177
18.00,197.09,0.026,97.175
18.03,197.42,0.027,97.174
18.07,197.75,0.028,97.172
18.10,198.09,0.029,97.170
18.13,198.42,0.029,97.169
18.17,198.75,0.030,97.167
18.20,199.08,0.031,97.165
18.23,199.41,0.032,97.164
18.27,199.74,0.032,97.162
18.30,200.08,0.033,97.161
18.33,200.41,0.034,97.159
18.37,200.74,0.035,97.157
18.40,201.07,0.036,97.156
18.43,201.40,0.037,97.154
18.47,201.74,0.037,97.152
18.50,202.07,0.038,97.151
18.53,202.40,0.039,97.149
18.57,202.73,0.040,97.147
18.60,203.06,0.041,97.145
18.63,203.40,0.041,97.144
18.67,203.73,0.042,97.142
18.70,204.06,0.043,97.140
18.73,204.39,0.044,97.138
18.77,204.73,0.044,97.137
18.80,205.06,0.045,97.135
18.83,205.39,0.046,97.133
18.87,205.72,0.047,97.131
18.90,206.06,0.048,97.129
18.93,206.39,0.049,97.127
18.97,206.72,0.049,97.125
19.00,207.05,0.050,97.123
19.03,207.38,0.051,97.122
19.07,207.72,0.052,97.120
19.10,208.05,0.053,97.118
19.13,208.38,0.054,97.116
19.17,208.72,0.054,97.114
19.20,209.05,0.055,97.112
19.23,209.38,0.056,97.110
19.27,209.71,0.056,97.108
19.30,210.04,0.057,97.106
19.33,210.38,0.058,97.103
19.37,210.71,0.059,97.101
19.40,211.04,0.060,97.099
19.43,211.37,0.061,97.097
19.47,211.71,0.062,97.095
19.50,212.04,0.062,97.093
19.53,212.37,0.063,97.090
19.57,212.70,0.063,97.088
19.60,213.03,0.064,97.086
19.63,213.37,0.064,97.083
19.67,213.70,0.065,97.081
19.70,214.03,0.066,97.079
19.73,214.36,0.067,97.076
19.77,214.70,0.068,97.074
19.80,215.03,0.069,97.071
19.83,215.36,0.070,97.069
19.87,215.69,0.071,97.066
19.90,216.02,0.071,97.064
19.93,216.36,0.072,97.061
19.97,216.69,0.073,97.059
20.00,217.02,0.074,97.056
20.03,217.35,0.075,97.053
20.07,217.69,0.076,97.051
20.10,218.02,0.076,97.048
20.13,218.35,0.077,97.045
20.17,218.68,0.078,97.042
20.20,219.02,0.079,97.040
20.23,219.35,0.080,97.037
20.27,219.68,0.081,97.034
20.30,220.01,0.081,97.031
20.33,220.35,0.082,97.028
20.37,220.68,0.083,97.025
20.40,221.01,0.083,97.022
20.43,221.34,0.084,97.018
20.47,221.68,0.085,97.015
20.50,222.01,0.086,97.012
20.53,222.34,0.087,97.009
20.57,222.67,0.088,97.006
20.60,223.00,0.088,97.002
20.63,223.34,0.089,96.999
20.67,223.67,0.090,96.995
20.70,224.00,0.091,96.992
20.73,224.33,0.092,96.988
20.77,224.67,0.093,96.985
20.80,225.00,0.094,96.981
20.83,225.33,0.094,96.978
20.87,225.66,0.095,96.974
20.90,225.99,0.096,96.970
20.93,226.33,0.097,96.966
20.97,226.66,0.098,96.962
21.00,226.99,0.099,96.958
21.03,227.32,0.100,96.954
21.07,227.65,0.101,96.950
21.10,227.99,0.101,96.946
21.13,228.32,0.102,96.942
21.17,228.65,0.103,96.938
21.20,228.98,0.104,96.933
21.23,229.32,0.105,96.929
21.27,229.65,0.106,96.924
21.30,229.98,0.107,96.920
21.33,230.31,0.107,96.915
21.37,230.64,0.108,96.911
21.40,230.98,0.109,96.906
21.43,231.31,0.110,96.901
21.47,231.64,0.111,96.896
21.50,231.97,0.112,96.891
21.53,232.31,0.112,96.886
21.57,232.64,0.113,96.881
21.60,232.97,0.115,96.876
21.63,233.30,0.116,96.871
21.67,233.63,0.117,96.865
21.70,233.97,0.117,96.860
21.73,234.30,0.118,96.854
21.77,234.63,0.119,96.848
21.80,234.96,0.120,96.843
21.83,235.30,0.121,96.837
21.87,235.63,0.121,96.831
21.90,235.96,0.122,96.825
21.93,236.29,0.123,96.819
21.97,236.62,0.124,96.813
22.00,236.96,0.125,96.806
22.03,237.29,0.126,96.800
22.07,237.62,0.127,96.793
22.10,237.95,0.127,96.786
22.13,238.29,0.128,96.780
22.17,238.62,0.129,96.773
22.20,238.95,0.130,96.766
22.23,239.28,0.131,96.758
22.27,239.62,0.132,96.751
22.30,239.95,0.133,96.744
22.33,240.28,0.133,96.736
22.37,240.61,0.134,96.729
22.40,240.95,0.135,96.721
22.43,241.28,0.136,96.713
22.47,241.61,0.137,96.705
22.50,241.94,0.138,96.697
22.53,242.27,0.138,96.689
22.57,242.61,0.139,96.680
22.60,242.94,0.140,96.672
22.63,243.27,0.141,96.663
22.67,243.61,0.142,96.654
22.70,243.94,0.143,96.645
22.73,244.27,0.144,96.636
22.77,244.60,0.145,96.626
22.80,244.93,0.146,96.616
22.83,245.27,0.146,96.607
22.87,245.60,0.147,96.597
22.90,245.93,0.148,96.586
22.93,246.26,0.149,96.576
22.97,246.60,0.150,96.565
23.00,246.93,0.151,96.555
23.03,247.26,0.152,96.544
23.07,247.60,0.153,96.532
23.10,247.93,0.154,96.521
23.13,248.26,0.155,96.509
23.17,248.59,0.156,96.498
23.20,248.93,0.157,96.485
23.23,249.26,0.157,96.473
23.27,249.59,0.158,96.461
23.30,249.92,0.159,96.448
23.33,250.26,0.160,96.435
23.37,250.59,0.161,96.421
23.40,250.92,0.162,96.408
23.43,251.25,0.162,96.394
23.47,251.59,0.163,96.380
23.50,251.92,0.164,96.366
23.53,252.25,0.165,96.351
23.57,252.58,0.166,96.336
23.60,252.92,0.167,96.321
23.63,253.25,0.168,96.305
23.67,253.58,0.169,96.290
23.70,253.92,0.170,96.274
23.73,254.25,0.171,96.257
23.77,254.58,0.172,96.240
23.80,254.91,0.173,96.223
23.83,255.24,0.174,96.206
23.87,255.58,0.174,96.188
23.90,255.91,0.175,96.170
23.93,256.24,0.176,96.152
23.97,256.58,0.177,96.133
24.00,256.91,0.178,96.113
24.03,257.24,0.180,96.093
24.07,257.57,0.181,96.073
24.10,257.91,0.182,96.052
24.13,258.24,0.183,96.029
24.17,258.57,0.183,96.007
24.20,258.90,0.184,95.983
24.23,259.24,0.185,95.959
24.27,259.57,0.186,95.933
24.30,259.90,0.186,95.906
24.33,260.24,0.187,95.878
24.37,260.57,0.188,95.850
24.40,260.90,0.190,95.822
24.43,261.23,0.190,95.793
24.47,261.57,0.191,95.763
24.50,261.90,0.192,95.732
24.53,262.23,0.193,95.701
24.57,262.56,0.194,95.670
24.60,262.90,0.195,95.638
24.63,263.23,0.196,95.605
24.67,263.56,0.197,95.572
24.70,263.90,0.198,95.538
24.73,264.23,0.199,95.504
24.77,264.56,0.200,95.469
24.80,264.89,0.201,95.434
24.83,265.23,0.202,95.399
24.87,265.56,0.204,95.362
24.90,265.89,0.205,95.325
24.93,266.22,0.206,95.287
24.97,266.56,0.207,95.249
25.00,266.89,0.208,95.210
25.03,267.22,0.209,95.170
25.07,267.56,0.210,95.130
25.10,267.89,0.211,95.090
25.13,268.22,0.212,95.049
25.17,268.55,0.214,95.007
25.20,268.89,0.215,94.964
25.23,269.22,0.216,94.921
25.27,269.55,0.217,94.877
25.30,269.89,0.218,94.832
25.33,270.22,0.219,94.787
25.37,270.55,0.220,94.740
25.40,270.89,0.221,94.693
25.43,271.22,0.222,94.646
25.47,271.55,0.223,94.598
25.50,271.88,0.224,94.549
25.53,272.22,0.225,94.500
25.57,272.55,0.227,94.449
25.60,272.88,0.228,94.398
25.63,273.22,0.229,94.347
25.67,273.55,0.230,94.295
25.70,273.88,0.231,94.241
25.73,274.22,0.232,94.187
25.77,274.55,0.234,94.132
25.80,274.88,0.235,94.076
25.83,275.22,0.236,94.019
25.87,275.55,0.237,93.962
25.90,275.88,0.238,93.904
25.93,276.22,0.239,93.845
25.97,276.55,0.240,93.785
26.00,276.88,0.241,93.725
26.03,277.21,0.243,93.664
26.07,277.55,0.244,93.601
26.10,277.88,0.245,93.538
26.13,278.21,0.247,93.473
26.17,278.55,0.248,93.408
26.20,278.88,0.249,93.343
26.23,279.21,0.250,93.277
26.27,279.55,0.251,93.211
26.30,279.88,0.252,93.143
26.33,280.21,0.254,93.074
26.37,280.55,0.255,93.005
26.40,280.88,0.256,92.935
26.43,281.21,0.257,92.865
26.47,281.55,0.258,92.793
26.50,281.88,0.260,92.720
26.53,282.21,0.261,92.647
26.57,282.55,0.262,92.573
26.60,282.88,0.264,92.498
26.63,283.21,0.265,92.423
26.67,283.55,0.266,92.346
26.70,283.88,0.267,92.269
26.73,284.21,0.269,92.191
26.77,284.55,0.270,92.113
26.80,284.88,0.271,92.034
26.83,285.21,0.272,91.954
26.87,285.55,0.274,91.874
26.90,285.88,0.275,91.792
26.93,286.21,0.276,91.710
26.97,286.55,0.278,91.627
27.00,286.88,0.279,91.543
27.03,287.21,0.280,91.459
27.07,287.55,0.282,91.374
27.10,287.88,0.283,91.288
27.13,288.21,0.284,91.202
27.17,288.55,0.285,91.116
27.20,288.88,0.286,91.028
27.23,289.21,0.288,90.940
27.27,289.55,0.289,90.852
27.30,289.88,0.290,90.763
27.33,290.21,0.292,90.673
27.37,290.55,0.294,90.583
27.40,290.88,0.295,90.491
27.43,291.21,0.296,90.400
27.47,291.55,0.298,90.307
27.50,291.88,0.299,90.215
27.53,292.21,0.301,90.122
27.57,292.55,0.303,90.028
27.60,292.88,0.304,89.934
27.63,293.21,0.305,89.838
27.67,293.55,0.306,89.743
27.70,293.88,0.307,89.647
27.73,294.21,0.309,89.549
27.77,294.55,0.311,89.452
27.80,294.88,0.313,89.354
27.83,295.22,0.314,89.256
27.87,295.55,0.315,89.157
27.90,295.88,0.317,89.057
27.93,296.22,0.319,88.957
27.97,296.55,0.320,88.856
28.00,296.89,0.322,88.754
28.03,297.22,0.324,88.652
28.07,297.55,0.326,88.549
28.10,297.89,0.327,88.446
28.13,298.22,0.328,88.341
28.17,298.55,0.330,88.236
28.20,298.89,0.332,88.131
28.23,299.22,0.333,88.024
28.27,299.56,0.335,87.917
28.30,299.89,0.337,87.809
28.33,300.23,0.338,87.700
28.37,300.56,0.340,87.591
28.40,300.89,0.342,87.481
28.43,301.23,0.343,87.369
28.47,301.56,0.345,87.257
28.50,301.90,0.347,87.144
28.53,302.23,0.348,87.030
28.57,302.57,0.351,86.915
28.60,302.90,0.353,86.798
28.63,303.24,0.354,86.681
28.67,303.57,0.356,86.563
28.70,303.90,0.358,86.443
28.73,304.24,0.360,86.323
28.77,304.57,0.362,86.201
28.80,304.91,0.364,86.078
28.83,305.24,0.366,85.953
28.87,305.58,0.367,85.827
28.90,305.91,0.369,85.700
28.93,306.25,0.371,85.571
28.97,306.58,0.373,85.441
29.00,306.92,0.375,85.308
29.03,307.25,0.377,85.174
29.07,307.59,0.379,85.038
29.10,307.92,0.380,84.901
29.13,308.26,0.382,84.762
29.17,308.59,0.385,84.622
29.20,308.93,0.387,84.479
29.23,309.26,0.389,84.335
29.27,309.60,0.392,84.189
29.30,309.93,0.393,84.041
29.33,310.27,0.395,83.890
29.37,310.60,0.397,83.737
29.40,310.94,0.400,83.582
29.43,311.27,0.402,83.426
29.47,311.61,0.404,83.266
29.50,311.94,0.406,83.105
29.53,312.28,0.408,82.940
29.57,312.61,0.411,82.773
29.60,312.95,0.413,82.604
29.63,313.29,0.416,82.431
29.67,313.62,0.418,82.256
29.70,313.96,0.420,82.079
29.73,314.29,0.422,81.898
29.77,314.63,0.425,81.715
29.80,314.96,0.427,81.529
29.83,315.30,0.430,81.340
29.87,315.63,0.432,81.147
29.90,315.97,0.435,80.952
29.93,316.31,0.437,80.754
29.97,316.64,0.440,80.552
30.00,316.98,0.443,80.347
30.03,317.31,0.446,80.139
30.07,317.65,0.448,79.927
30.10,317.98,0.451,79.712
30.13,318.32,0.453,79.494
30.17,318.66,0.457,79.272
30.20,318.99,0.460,79.047
30.23,319.33,0.464,78.819
30.27,319.66,0.466,78.586
30.30,320.00,0.469,78.351
30.33,320.34,0.473,78.112
30.37,320.68,0.476,77.870
30.40,321.01,0.480,77.625
30.43,321.35,0.483,77.376
30.47,321.68,0.487,77.124
30.50,322.02,0.490,76.869
30.53,322.36,0.494,76.610
30.57,322.70,0.498,76.349
30.60,323.03,0.502,76.084
30.63,323.37,0.506,75.816
30.67,323.71,0.510,75.546
30.70,324.04,0.515,75.273
30.73,324.38,0.520,74.997
30.77,324.72,0.525,74.719
30.80,325.06,0.530,74.437
30.83,325.40,0.536,74.154
30.87,325.74,0.541,73.869
30.90,326.08,0.547,73.582
30.93,326.42,0.552,73.294
30.97,326.76,0.559,73.005
31.00,327.10,0.565,72.714
31.03,327.44,0.572,72.424
31.07,327.78,0.579,72.132
31.10,328.12,0.586,71.841
31.13,328.46,0.593,71.550
31.17,328.80,0.600,71.260
31.20,329.14,0.609,70.971
31.23,329.48,0.617,70.683
31.27,329.82,0.626,70.396
31.30,330.17,0.635,70.112
31.33,330.51,0.644,69.829
31.37,330.85,0.653,69.550
31.40,331.20,0.662,69.273
31.43,331.54,0.672,68.999
31.47,331.88,0.682,68.729
31.50,332.23,0.693,68.463
31.53,332.57,0.704,68.201
31.57,332.92,0.714,67.943
31.60,333.26,0.725,67.690
31.63,333.61,0.736,67.442
31.67,333.95,0.746,67.200
31.70,334.30,0.757,66.962
31.73,334.64,0.769,66.731
31.77,334.99,0.779,66.506
31.80,335.33,0.790,66.285
31.83,335.68,0.801,66.071
31.87,336.02,0.811,65.863
31.90,336.37,0.822,65.660
31.93,336.71,0.832,65.464
31.97,337.05,0.842,65.273
32.00,337.40,0.852,65.089
32.03,337.74,0.861,64.911
32.07,338.08,0.870,64.739
32.10,338.42,0.878,64.573
32.13,338.77,0.887,64.412
32.17,339.11,0.895,64.257
32.20,339.45,0.903,64.108
32.23,339.79,0.911,63.964
32.27,340.13,0.919,63.825
32.30,340.47,0.926,63.692
32.33,340.81,0.933,63.564
32.37,341.15,0.939,63.440
32.40,341.49,0.946,63.321
32.43,341.83,0.952,63.206
32.47,342.17,0.957,63.096
32.50,342.51,0.963,62.991
32.53,342.85,0.968,62.889
32.57,343.18,0.973,62.791
32.60,343.52,0.978,62.697
32.63,343.86,0.983,62.606
32.67,344.20,0.987,62.519
32.70,344.54,0.992,62.435
32.73,344.87,0.996,62.355
32.77,345.21,1.000,62.277
32.80,345.55,1.004,62.202
32.83,345.88,1.008,62.130
32.87,346.22,1.012,62.061
32.90,346.56,1.016,61.993
32.93,346.90,1.019,61.928
32.97,347.23,1.023,61.865
33.00,347.57,1.026,61.805
33.03,347.91,1.030,61.746
33.07,348.24,1.034,61.689
33.10,348.58,1.037,61.634
33.13,348.92,1.041,61.581
33.17,349.26,1.045,61.529
33.20,349.59,1.049,61.478
33.23,349.93,1.053,61.429
33.27,350.27,1.057,61.382
33.30,350.60,1.061,61.335
33.33,350.94,1.066,61.289
33.37,351.28,1.071,61.245
33.40,351.62,1.076,61.202
33.43,351.96,1.081,61.159
33.47,352.30,1.087,61.117
33.50,352.64,1.093,61.076
33.53,352.98,1.100,61.036
33.57,353.32,1.107,60.996
33.60,353.66,1.114,60.957
33.63,354.00,1.122,60.918
33.67,354.34,1.130,60.880
33.70,354.68,1.139,60.842
33.73,355.03,1.148,60.804
33.77,355.37,1.158,60.767
33.80,355.72,1.168,60.731
33.83,356.06,1.179,60.694
33.87,356.41,1.191,60.657
33.90,356.76,1.202,60.621
33.93,357.10,1.214,60.585
33.97,357.45,1.226,60.549
34.00,357.80,1.239,60.512
34.03,358.15,1.251,60.475
34.07,358.49,1.263,60.438
34.10,358.84,1.275,60.403
34.13,359.18,1.286,60.367
34.17,359.53,1.298,60.332
34.20,359.88,1.309,60.296
34.23,360.22,1.319,60.261
34.27,360.56,1.329,60.226
34.30,360.91,1.339,60.191
34.33,361.25,1.348,60.156
34.37,361.59,1.357,60.121
34.40,361.94,1.365,60.085
34.43,362.28,1.373,60.051
34.47,362.62,1.380,60.016
34.50,362.96,1.386,59.981
34.53,363.30,1.392,59.946
34.57,363.64,1.398,59.911
34.60,363.97,1.403,59.877
34.63,364.31,1.408,59.843
34.67,364.65,1.412,59.808
34.70,364.98,1.415,59.774
34.73,365.32,1.418,59.740
34.77,365.65,1.420,59.705
34.80,365.99,1.423,59.671
34.83,366.33,1.425,59.636
34.87,366.66,1.427,59.602
34.90,366.99,1.428,59.567
34.93,367.33,1.429,59.533
34.97,367.66,1.430,59.498
35.00,367.99,1.431,59.464
35.03,368.32,1.432,59.430
35.07,368.65,1.432,59.396
35.10,368.99,1.433,59.361
35.13,369.32,1.433,59.327
35.17,369.65,1.433,59.293
35.20,369.98,1.433,59.258
35.23,370.31,1.433,59.224
35.27,370.64,1.432,59.189
35.30,370.97,1.431,59.155
35.33,371.30,1.430,59.120
35.37,371.64,1.429,59.086
35.40,371.97,1.428,59.052
35.43,372.30,1.426,59.017
35.47,372.63,1.425,58.983
35.50,372.96,1.424,58.948
35.53,373.29,1.422,58.914
35.57,373.62,1.420,58.879
35.60,373.95,1.419,58.844
35.63,374.28,1.417,58.809
35.67,374.61,1.415,58.774
35.70,374.94,1.414,58.739
35.73,375.27,1.412,58.704
35.77,375.60,1.411,58.669
35.80,375.93,1.410,58.634
35.83,376.27,1.409,58.599
35.87,376.60,1.407,58.564
35.90,376.93,1.406,58.529
35.93,377.26,1.404,58.494
35.97,377.59,1.403,58.459
36.00,377.92,1.401,58.423
36.03,378.25,1.399,58.388
36.07,378.58,1.398,58.353
36.10,378.91,1.397,58.317
36.13,379.24,1.396,58.281
36.17,379.58,1.394,58.246
36.20,379.91,1.393,58.210
36.23,380.24,1.391,58.175
36.27,380.57,1.390,58.139
36.30,380.90,1.389,58.103
36.33,381.23,1.388,58.067
36.37,381.56,1.387,58.031
36.40,381.90,1.385,57.995
36.43,382.23,1.384,57.959
36.47,382.56,1.383,57.923
36.50,382.89,1.382,57.886
36.53,383.22,1.381,57.850
36.57,383.55,1.380,57.813
36.60,383.89,1.379,57.777
36.63,384.22,1.378,57.741
36.67,384.55,1.377,57.704
36.70,384.88,1.376,57.667
36.73,385.21,1.375,57.630
36.77,385.55,1.375,57.593
36.80,385.88,1.374,57.557
36.83,386.21,1.373,57.520
36.87,386.54,1.372,57.483
36.90,386.88,1.371,57.446
36.93,387.21,1.370,57.408
36.97,387.54,1.369,57.371
37.00,387.87,1.369,57.334
37.03,388.21,1.368,57.297
37.07,388.54,1.367,57.259
37.10,388.87,1.367,57.222
37.13,389.20,1.366,57.184
37.17,389.54,1.366,57.147
37.20,389.87,1.365,57.109
37.23,390.20,1.365,57.071
37.27,390.53,1.364,57.033
37.30,390.87,1.364,56.995
37.33,391.20,1.363,56.957
37.37,391.53,1.363,56.919
37.40,391.86,1.362,56.882
37.43,392.20,1.362,56.844
37.47,392.53,1.361,56.805
37.50,392.86,1.360,56.767
37.53,393.19,1.360,56.728
37.57,393.53,1.359,56.690
37.60,393.86,1.359,56.651
37.63,394.19,1.359,56.613
37.67,394.52,1.359,56.574
37.70,394.86,1.359,56.536
37.73,395.19,1.358,56.497
37.77,395.52,1.358,56.459
37.80,395.86,1.358,56.420
37.83,396.19,1.357,56.381
37.87,396.52,1.357,56.342
37.90,396.86,1.356,56.303
37.93,397.19,1.356,56.264
37.97,397.52,1.355,56.224
38.00,397.85,1.355,56.185
38.03,398.19,1.355,56.145
38.07,398.52,1.355,56.106
38.10,398.85,1.355,56.066
38.13,399.19,1.354,56.027
38.17,399.52,1.354,55.987
38.20,399.85,1.354,55.947
38.23,400.19,1.354,55.908
38.27,400.52,1.354,55.868
38.30,400.85,1.353,55.828
38.33,401.19,1.353,55.788
38.37,401.52,1.353,55.748
38.40,401.85,1.353,55.708
38.43,402.19,1.353,55.668
38.47,402.52,1.353,55.627
38.50,402.85,1.353,55.587
38.53,403.19,1.353,55.547
38.57,403.52,1.353,55.507
38.60,403.85,1.353,55.466
38.63,404.19,1.353,55.426
38.67,404.52,1.353,55.385
38.70,404.85,1.353,55.345
38.73,405.19,1.353,55.304
38.77,405.52,1.352,55.263
38.80,405.85,1.352,55.222
38.83,406.19,1.352,55.181
38.87,406.52,1.352,55.140
38.90,406.85,1.352,55.098
38.93,407.19,1.352,55.057
38.97,407.52,1.352,55.016
39.00,407.86,1.352,54.974
39.03,408.19,1.352,54.933
39.07,408.52,1.352,54.891
39.10,408.86,1.352,54.850
39.13,409.19,1.352,54.808
39.17,409.52,1.352,54.767
39.20,409.86,1.352,54.725
39.23,410.19,1.352,54.683
39.27,410.52,1.352,54.642
39.30,410.86,1.352,54.600
39.33,411.19,1.352,54.558
39.37,411.52,1.352,54.516
39.40,411.86,1.352,54.474
39.43,412.19,1.352,54.431
39.47,412.53,1.352,54.389
39.50,412.86,1.352,54.346
39.53,413.19,1.352,54.304
39.57,413.53,1.352,54.262
39.60,413.86,1.353,54.219
39.63,414.19,1.353,54.176
39.67,414.53,1.353,54.133
39.70,414.86,1.353,54.090
39.73,415.20,1.353,54.047
39.77,415.53,1.353,54.005
39.80,415.86,1.353,53.962
39.83,416.20,1.353,53.919
39.87,416.53,1.354,53.876
39.90,416.86,1.354,53.832
39.93,417.20,1.354,53.789
39.97,417.53,1.354,53.746
40.00,417.86,1.354,53.702
40.03,418.20,1.354,53.659
40.07,418.53,1.355,53.616
40.10,418.87,1.355,53.572
40.13,419.20,1.355,53.529
40.17,419.53,1.355,53.485
40.20,419.87,1.355,53.441
40.23,420.20,1.356,53.397
40.27,420.53,1.356,53.353
40.30,420.87,1.356,53.309
40.33,421.20,1.356,53.265
40.37,421.54,1.356,53.221
40.40,421.87,1.356,53.177
40.43,422.20,1.357,53.133
40.47,422.54,1.357,53.089
40.50,422.87,1.357,53.044
40.53,423.20,1.357,52.999
40.57,423.54,1.357,52.955
40.60,423.87,1.357,52.910
40.63,424.21,1.358,52.866
40.67,424.54,1.358,52.821
40.70,424.87,1.358,52.777
40.73,425.21,1.358,52.731
40.77,425.54,1.358,52.686
40.80,425.87,1.358,52.641
40.83,426.21,1.358,52.597
40.87,426.54,1.358,52.551
40.90,426.87,1.359,52.506
40.93,427.21,1.359,52.461
40.97,427.54,1.359,52.416
41.00,427.88,1.360,52.371
41.03,428.21,1.360,52.325
41.07,428.54,1.360,52.279
41.10,428.88,1.360,52.234
41.13,429.21,1.360,52.188
41.17,429.54,1.360,52.142
41.20,429.88,1.360,52.097
41.23,430.21,1.360,52.051
41.27,430.54,1.360,52.005
41.30,430.88,1.360,51.959
41.33,431.21,1.360,51.912
41.37,431.54,1.360,51.866
41.40,431.88,1.359,51.820
41.43,432.21,1.359,51.774
41.47,432.54,1.359,51.728
41.50,432.88,1.359,51.681
41.53,433.21,1.359,51.634
41.57,433.55,1.359,51.588
41.60,433.88,1.359,51.541
41.63,434.21,1.359,51.495
41.67,434.54,1.358,51.448
41.70,434.88,1.358,51.401
41.73,435.21,1.357,51.354
41.77,435.54,1.357,51.307
41.80,435.88,1.356,51.260
41.83,436.21,1.355,51.213
41.87,436.54,1.355,51.166
41.90,436.88,1.355,51.118
41.93,437.21,1.354,51.071
41.97,437.54,1.354,51.023
42.00,437.88,1.354,50.976
42.03,438.21,1.354,50.928
42.07,438.54,1.354,50.880
42.10,438.88,1.353,50.832
42.13,439.21,1.353,50.784
42.17,439.54,1.353,50.737
42.20,439.88,1.353,50.688
42.23,440.21,1.352,50.640
42.27,440.54,1.351,50.591
42.30,440.87,1.351,50.543
42.33,441.21,1.351,50.494
42.37,441.54,1.350,50.446
42.40,441.87,1.350,50.397
42.43,442.21,1.350,50.348
42.47,442.54,1.350,50.299
42.50,442.87,1.349,50.250
42.53,443.21,1.349,50.201
42.57,443.54,1.349,50.152
42.60,443.87,1.348,50.103
42.63,444.21,1.348,50.053
42.67,444.54,1.347,50.003
42.70,444.87,1.347,49.953
42.73,445.20,1.347,49.903
42.77,445.54,1.347,49.853
42.80,445.87,1.346,49.802
42.83,446.20,1.346,49.752
42.87,446.54,1.346,49.702
42.90,446.87,1.345,49.651
42.93,447.21,1.345,49.600
42.97,447.54,1.345,49.550
43.00,447.87,1.345,49.499
43.03,448.20,1.344,49.448
43.07,448.54,1.344,49.397
43.10,448.87,1.343,49.346
43.13,449.20,1.343,49.294
43.17,449.54,1.343,49.243
43.20,449.87,1.342,49.191
43.23,450.20,1.342,49.139
43.27,450.54,1.342,49.087
43.30,450.87,1.342,49.035
43.33,451.20,1.342,48.983
43.37,451.54,1.341,48.931
43.40,451.87,1.341,48.879
43.43,452.20,1.341,48.826
43.47,452.54,1.341,48.774
43.50,452.87,1.341,48.721
43.53,453.20,1.341,48.668
43.57,453.54,1.341,48.615
43.60,453.87,1.340,48.562
43.63,454.20,1.340,48.509
43.67,454.54,1.340,48.455
43.70,454.87,1.340,48.401
43.73,455.20,1.339,48.347
43.77,455.54,1.339,48.293
43.80,455.87,1.339,48.240
43.83,456.20,1.339,48.185
43.87,456.54,1.339,48.131
43.90,456.87,1.339,48.076
43.93,457.20,1.338,48.022
43.97,457.54,1.338,47.967
44.00,457.87,1.338,47.912
44.03,458.20,1.338,47.857
44.07,458.54,1.338,47.801
44.10,458.87,1.338,47.746
44.13,459.20,1.338,47.690
44.17,459.54,1.338,47.634
44.20,459.87,1.337,47.578
44.23,460.20,1.337,47.523
44.27,460.54,1.337,47.466
44.30,460.87,1.337,47.410
44.33,461.20,1.337,47.353
44.37,461.54,1.337,47.296
44.40,461.87,1.336,47.238
44.43,462.20,1.336,47.181
44.47,462.53,1.336,47.123
44.50,462.87,1.335,47.066
44.53,463.20,1.335,47.008
44.57,463.53,1.334,46.950
44.60,463.87,1.334,46.892
44.63,464.20,1.334,46.834
44.67,464.54,1.334,46.775
44.70,464.87,1.334,46.716
44.73,465.20,1.334,46.657
44.77,465.54,1.334,46.598
44.80,465.87,1.334,46.539
44.83,466.21,1.334,46.479
44.87,466.54,1.334,46.419
44.90,466.87,1.334,46.359
44.93,467.21,1.334,46.298
44.97,467.54,1.334,46.238
45.00,467.87,1.334,46.177
45.03,468.21,1.334,46.116
45.07,468.54,1.334,46.054
45.10,468.87,1.334,45.993
45.13,469.21,1.333,45.931
45.17,469.54,1.334,45.869
45.20,469.88,1.334,45.807
45.23,470.21,1.334,45.744
45.27,470.54,1.334,45.681
45.30,470.88,1.334,45.618
45.33,471.21,1.334,45.554
45.37,471.54,1.334,45.490
45.40,471.88,1.334,45.426
45.43,472.21,1.335,45.363
45.47,472.54,1.335,45.298
45.50,472.88,1.335,45.234
45.53,473.21,1.335,45.169
45.57,473.55,1.336,45.103
45.60,473.88,1.336,45.038
45.63,474.21,1.336,44.972
45.67,474.55,1.336,44.904
45.70,474.88,1.337,44.837
45.73,475.22,1.337,44.769
45.77,475.55,1.338,44.701
45.80,475.88,1.338,44.633
45.83,476.22,1.338,44.564
45.87,476.55,1.339,44.495
45.90,476.89,1.340,44.425
45.93,477.22,1.340,44.356
45.97,477.56,1.341,44.286
46.00,477.89,1.342,44.216
46.03,478.22,1.343,44.146
46.07,478.56,1.344,44.075
46.10,478.89,1.345,44.005
46.13,479.23,1.346,43.934
46.17,479.56,1.347,43.862
46.20,479.90,1.349,43.791
46.23,480.23,1.350,43.718
46.27,480.57,1.352,43.646
46.30,480.90,1.353,43.573
46.33,481.24,1.354,43.499
46.37,481.57,1.356,43.425
46.40,481.91,1.358,43.350
46.43,482.24,1.359,43.273
46.47,482.58,1.361,43.196
46.50,482.92,1.363,43.118
46.53,483.25,1.365,43.041
46.57,483.59,1.367,42.964
46.60,483.92,1.369,42.887
46.63,484.26,1.372,42.810
46.67,484.60,1.375,42.732
46.70,484.93,1.378,42.654
46.73,485.27,1.381,42.575
46.77,485.61,1.384,42.496
46.80,485.94,1.387,42.416
46.83,486.28,1.390,42.337
46.87,486.62,1.393,42.257
46.90,486.95,1.397,42.176
46.93,487.29,1.400,42.095
46.97,487.63,1.404,42.014
47.00,487.97,1.408,41.932
47.03,488.30,1.412,41.850
47.07,488.64,1.417,41.765
47.10,488.98,1.422,41.678
47.13,489.32,1.428,41.590
47.17,489.66,1.434,41.501
47.20,490.00,1.440,41.412
47.23,490.34,1.447,41.323
47.27,490.68,1.453,41.234
47.30,491.02,1.461,41.143
47.33,491.36,1.468,41.053
47.37,491.70,1.475,40.962
47.40,492.04,1.482,40.870
47.43,492.39,1.490,40.778
47.47,492.73,1.498,40.685
47.50,493.07,1.505,40.592
47.53,,,40.498
47.55,,,40.451