File: data/DSC-TGA/coated-laser.csv
Filename,MLCS 8485 laser coated
Instrument name,SDT 1 LEFT (192.168.0.183)
Operator,dAA
rundate,10/24/2023
Sample name,MLCS 8485 laser coated
proceduresegments,Data Off ; Select Gas: Gas 2 ; Balance Flow 100 mL/min; Mass Flow  100.00 mL/min; Isothermal 10.0 min; Data On ; Ramp 10.00 °C/min to 500.00 °C; Data Off
[step]
Ramp 10.00 °C/min to 500.00 °C
Time,Temperature,Heat Flow (Normalized),Weight
min,°C,W/g,%
0.00,30.06,-0.020,99.650
0.03,30.05,-0.020,99.649
0.06,30.05,-0.020,99.648
0.09,30.05,-0.020,99.647
0.13,30.05,-0.020,99.646
0.16,30.05,-0.020,99.646
0.19,30.05,-0.019,99.645
0.22,30.05,-0.019,99.644
0.25,30.05,-0.019,99.643
0.29,30.04,-0.019,99.642
0.32,30.04,-0.019,99.642
0.35,30.04,-0.019,99.641
0.38,30.04,-0.019,99.640
0.41,30.04,-0.019,99.640
0.44,30.04,-0.019,99.639
0.48,30.04,-0.019,99.638
0.51,30.04,-0.019,99.637
0.54,30.04,-0.019,99.637
0.57,30.05,-0.018,99.636
0.60,30.06,-0.018,99.636
0.63,30.07,-0.018,99.635
0.67,30.09,-0.018,99.634
0.70,30.12,-0.018,99.634
0.73,30.16,-0.018,99.634
0.76,30.20,-0.018,99.633
0.79,30.25,-0.018,99.633
0.82,30.32,-0.019,99.633
0.85,30.39,-0.020,99.633
0.89,30.47,-0.022,99.632
0.92,30.55,-0.025,99.632
0.95,30.65,-0.028,99.631
0.98,30.76,-0.032,99.630
1.01,30.87,-0.037,99.629
1.05,30.99,-0.042,99.627
1.08,31.13,-0.047,99.624
1.11,31.28,-0.053,99.621
1.14,31.43,-0.059,99.617
1.17,31.60,-0.065,99.613
1.20,31.78,-0.071,99.610
1.23,31.97,-0.077,99.606
1.27,32.17,-0.083,99.602
1.30,32.38,-0.090,99.599
1.33,32.60,-0.097,99.596
1.36,32.82,-0.104,99.592
1.39,33.06,-0.110,99.589
1.43,33.31,-0.117,99.586
1.46,33.57,-0.124,99.583
1.49,33.83,-0.130,99.581
1.52,34.11,-0.137,99.578
1.55,34.39,-0.144,99.576
1.58,34.67,-0.150,99.574
1.62,34.97,-0.157,99.572
1.65,35.27,-0.163,99.570
1.68,35.58,-0.169,99.568
1.71,35.90,-0.175,99.567
1.74,36.22,-0.181,99.565
1.77,36.54,-0.188,99.563
1.81,36.87,-0.194,99.562
1.84,37.21,-0.201,99.560
1.87,37.54,-0.208,99.559
1.90,37.88,-0.215,99.557
1.93,38.23,-0.222,99.556
1.96,38.57,-0.229,99.554
1.99,38.92,-0.236,99.553
2.03,39.27,-0.244,99.552
2.06,39.62,-0.251,99.551
2.09,39.97,-0.258,99.549
2.12,40.32,-0.265,99.548
2.15,40.68,-0.273,99.547
2.19,41.04,-0.279,99.546
2.22,41.39,-0.286,99.545
2.25,41.75,-0.293,99.544
2.28,42.10,-0.300,99.542
2.31,42.46,-0.306,99.541
2.34,42.81,-0.313,99.540
2.38,43.17,-0.319,99.539
2.41,43.52,-0.325,99.538
2.44,43.88,-0.331,99.537
2.47,44.23,-0.337,99.536
2.50,44.58,-0.342,99.535
2.53,44.93,-0.347,99.534
2.56,45.28,-0.352,99.533
2.60,45.63,-0.357,99.531
2.63,45.98,-0.361,99.530
2.66,46.33,-0.365,99.529
2.69,46.67,-0.369,99.528
2.72,47.02,-0.373,99.527
2.76,47.36,-0.376,99.525
2.79,47.70,-0.380,99.524
2.82,48.03,-0.383,99.523
2.85,48.37,-0.386,99.521
2.88,48.71,-0.388,99.520
2.91,49.04,-0.390,99.518
2.94,49.37,-0.392,99.517
2.98,49.70,-0.394,99.515
3.01,50.03,-0.396,99.514
3.04,50.36,-0.397,99.512
3.07,50.69,-0.398,99.510
3.10,51.01,-0.399,99.508
3.14,51.34,-0.400,99.507
3.17,51.66,-0.401,99.505
3.20,51.98,-0.401,99.503
3.23,52.30,-0.402,99.501
3.26,52.62,-0.402,99.499
3.29,52.94,-0.402,99.497
3.33,53.25,-0.402,99.495
3.36,53.57,-0.402,99.493
3.39,53.89,-0.401,99.491
3.42,54.20,-0.400,99.489
3.45,54.51,-0.399,99.487
3.48,54.82,-0.397,99.484
3.51,55.13,-0.396,99.482
3.55,55.45,-0.394,99.480
3.58,55.76,-0.393,99.477
3.61,56.07,-0.391,99.475
3.64,56.38,-0.388,99.472
3.67,56.69,-0.386,99.470
3.71,56.99,-0.384,99.467
3.74,57.30,-0.382,99.464
3.77,57.61,-0.379,99.462
3.80,57.92,-0.377,99.459
3.83,58.22,-0.374,99.456
3.86,58.53,-0.371,99.453
3.89,58.84,-0.369,99.450
3.93,59.15,-0.366,99.447
3.96,59.45,-0.363,99.444
3.99,59.76,-0.360,99.441
4.02,60.07,-0.357,99.438
4.05,60.37,-0.354,99.435
4.09,60.68,-0.351,99.432
4.12,60.99,-0.348,99.429
4.15,61.30,-0.345,99.425
4.18,61.60,-0.342,99.422
4.21,61.91,-0.339,99.418
4.24,62.22,-0.336,99.415
4.28,62.53,-0.333,99.411
4.31,62.84,-0.330,99.408
4.34,63.14,-0.326,99.404
4.37,63.45,-0.323,99.400
4.40,63.76,-0.320,99.397
4.43,64.07,-0.317,99.393
4.46,64.38,-0.314,99.389
4.50,64.69,-0.311,99.386
4.53,65.00,-0.308,99.382
4.56,65.31,-0.305,99.378
4.59,65.62,-0.302,99.374
4.62,65.93,-0.300,99.370
4.65,66.25,-0.297,99.366
4.69,66.56,-0.294,99.362
4.72,66.87,-0.291,99.358
4.75,67.18,-0.288,99.354
4.78,67.50,-0.285,99.349
4.81,67.81,-0.283,99.345
4.85,68.12,-0.280,99.341
4.88,68.43,-0.278,99.337
4.91,68.75,-0.275,99.332
4.94,69.06,-0.273,99.328
4.97,69.38,-0.270,99.324
5.00,69.69,-0.268,99.319
5.04,70.00,-0.265,99.315
5.07,70.32,-0.263,99.310
5.10,70.63,-0.261,99.306
5.13,70.95,-0.259,99.301
5.16,71.26,-0.256,99.297
5.19,71.58,-0.254,99.292
5.23,71.90,-0.252,99.288
5.26,72.21,-0.250,99.283
5.29,72.53,-0.248,99.278
5.32,72.84,-0.246,99.273
5.35,73.16,-0.244,99.269
5.38,73.48,-0.242,99.264
5.41,73.79,-0.240,99.259
5.45,74.11,-0.238,99.254
5.48,74.43,-0.236,99.249
5.51,74.74,-0.234,99.244
5.54,75.06,-0.232,99.239
5.57,75.38,-0.230,99.234
5.60,75.69,-0.229,99.229
5.64,76.01,-0.227,99.224
5.67,76.33,-0.225,99.219
5.70,76.65,-0.223,99.214
5.73,76.96,-0.222,99.209
5.76,77.28,-0.220,99.203
5.80,77.60,-0.218,99.198
5.83,77.91,-0.217,99.193
5.86,78.23,-0.215,99.188
5.89,78.55,-0.214,99.182
5.92,78.87,-0.212,99.177
5.95,79.18,-0.211,99.172
5.99,79.50,-0.209,99.166
6.02,79.82,-0.208,99.161
6.05,80.14,-0.206,99.156
6.08,80.45,-0.205,99.150
6.11,80.77,-0.204,99.145
6.14,81.09,-0.203,99.139
6.18,81.41,-0.201,99.134
6.21,81.72,-0.200,99.128
6.24,82.04,-0.199,99.123
6.27,82.36,-0.197,99.117
6.30,82.67,-0.196,99.111
6.33,82.99,-0.195,99.106
6.36,83.31,-0.193,99.100
6.40,83.63,-0.192,99.095
6.43,83.94,-0.191,99.089
6.46,84.26,-0.190,99.083
6.49,84.58,-0.189,99.077
6.52,84.89,-0.188,99.072
6.55,85.21,-0.187,99.066
6.59,85.53,-0.185,99.060
6.62,85.84,-0.184,99.054
6.65,86.16,-0.183,99.049
6.68,86.48,-0.182,99.043
6.71,86.79,-0.181,99.037
6.75,87.11,-0.180,99.031
6.78,87.43,-0.179,99.025
6.81,87.74,-0.178,99.019
6.84,88.06,-0.177,99.013
6.87,88.37,-0.176,99.007
6.90,88.69,-0.175,99.001
6.94,89.01,-0.174,98.995
6.97,89.33,-0.173,98.990
7.00,89.64,-0.172,98.984
7.03,89.96,-0.171,98.978
7.06,90.27,-0.170,98.972
7.09,90.59,-0.169,98.966
7.13,90.90,-0.168,98.960
7.16,91.22,-0.167,98.954
7.19,91.54,-0.166,98.948
7.22,91.85,-0.165,98.942
7.25,92.17,-0.164,98.936
7.28,92.48,-0.164,98.929
7.31,92.80,-0.163,98.923
7.35,93.11,-0.162,98.917
7.38,93.43,-0.161,98.911
7.41,93.74,-0.161,98.905
7.44,94.06,-0.160,98.899
7.47,94.38,-0.159,98.893
7.50,94.69,-0.158,98.887
7.54,95.01,-0.157,98.881
7.57,95.32,-0.156,98.875
7.60,95.64,-0.155,98.869
7.63,95.95,-0.155,98.863
7.66,96.27,-0.154,98.857
7.70,96.58,-0.153,98.851
7.73,96.90,-0.152,98.845
7.76,97.22,-0.151,98.839
7.79,97.53,-0.151,98.833
7.82,97.84,-0.150,98.826
7.85,98.16,-0.150,98.820
7.89,98.48,-0.149,98.814
7.92,98.79,-0.148,98.808
7.95,99.11,-0.147,98.802
7.98,99.42,-0.147,98.796
8.01,99.74,-0.146,98.790
8.04,100.05,-0.145,98.784
8.08,100.37,-0.145,98.778
8.11,100.68,-0.144,98.772
8.14,101.00,-0.143,98.766
8.17,101.32,-0.142,98.760
8.20,101.63,-0.142,98.754
8.23,101.95,-0.141,98.748
8.26,102.26,-0.140,98.742
8.30,102.58,-0.140,98.736
8.33,102.89,-0.140,98.730
8.36,103.21,-0.139,98.724
8.39,103.52,-0.138,98.718
8.42,103.84,-0.137,98.712
8.45,104.15,-0.137,98.706
8.49,104.47,-0.136,98.701
8.52,104.78,-0.135,98.695
8.55,105.10,-0.135,98.689
8.58,105.42,-0.134,98.683
8.61,105.73,-0.133,98.677
8.65,106.05,-0.132,98.671
8.68,106.36,-0.132,98.665
8.71,106.68,-0.132,98.660
8.74,107.00,-0.131,98.654
8.77,107.31,-0.131,98.648
8.80,107.63,-0.130,98.642
8.83,107.94,-0.129,98.637
8.87,108.26,-0.129,98.631
8.90,108.58,-0.128,98.625
8.93,108.89,-0.128,98.619
8.96,109.21,-0.127,98.614
8.99,109.52,-0.127,98.608
9.03,109.84,-0.126,98.602
9.06,110.15,-0.126,98.597
9.09,110.47,-0.125,98.591
9.12,110.79,-0.125,98.586
9.15,111.10,-0.124,98.580
9.18,111.42,-0.124,98.574
9.22,111.74,-0.123,98.569
9.25,112.05,-0.122,98.563
9.28,112.37,-0.122,98.558
9.31,112.68,-0.121,98.552
9.34,113.00,-0.121,98.547
9.37,113.32,-0.120,98.541
9.40,113.63,-0.120,98.536
9.44,113.95,-0.119,98.530
9.47,114.27,-0.118,98.525
9.50,114.58,-0.118,98.519
9.53,114.90,-0.117,98.514
9.56,115.21,-0.117,98.509
9.60,115.53,-0.116,98.503
9.63,115.85,-0.116,98.498
9.66,116.17,-0.115,98.493
9.69,116.48,-0.115,98.488
9.72,116.80,-0.114,98.482
9.75,117.11,-0.114,98.477
9.78,117.43,-0.113,98.472
9.82,117.75,-0.113,98.467
9.85,118.06,-0.112,98.461
9.88,118.38,-0.112,98.456
9.91,118.69,-0.111,98.451
9.94,119.01,-0.111,98.446
9.98,119.33,-0.110,98.441
10.01,119.64,-0.109,98.436
10.04,119.96,-0.108,98.431
10.07,120.28,-0.108,98.426
10.10,120.59,-0.107,98.421
10.13,120.91,-0.107,98.416
10.17,121.22,-0.107,98.412
10.20,121.54,-0.106,98.407
10.23,121.86,-0.105,98.402
10.26,122.17,-0.105,98.397
10.29,122.49,-0.104,98.392
10.32,122.81,-0.103,98.388
10.35,123.12,-0.103,98.383
10.39,123.43,-0.103,98.378
10.42,123.75,-0.102,98.374
10.45,124.07,-0.102,98.369
10.48,124.38,-0.101,98.364
10.51,124.70,-0.100,98.360
10.55,125.01,-0.100,98.355
10.58,125.33,-0.100,98.351
10.61,125.65,-0.099,98.346
10.64,125.96,-0.098,98.342
10.67,126.28,-0.098,98.337
10.70,126.59,-0.097,98.333
10.73,126.91,-0.097,98.329
10.77,127.23,-0.096,98.324
10.80,127.54,-0.095,98.320
10.83,127.86,-0.095,98.315
10.86,128.18,-0.094,98.311
10.89,128.49,-0.093,98.307
10.93,128.81,-0.093,98.303
10.96,129.12,-0.092,98.299
10.99,129.44,-0.092,98.294
11.02,129.76,-0.091,98.290
11.05,130.07,-0.091,98.286
11.08,130.39,-0.090,98.282
11.12,130.70,-0.090,98.278
11.15,131.02,-0.089,98.274
11.18,131.34,-0.089,98.270
11.21,131.65,-0.088,98.266
11.24,131.97,-0.087,98.262
11.27,132.28,-0.087,98.258
11.30,132.60,-0.086,98.254
11.34,132.92,-0.086,98.250
11.37,133.23,-0.085,98.246
11.40,133.55,-0.085,98.242
11.43,133.86,-0.084,98.238
11.46,134.18,-0.083,98.235
11.50,134.49,-0.083,98.231
11.53,134.81,-0.082,98.227
11.56,135.13,-0.082,98.223
11.59,135.44,-0.081,98.220
11.62,135.76,-0.081,98.216
11.65,136.07,-0.080,98.213
11.68,136.39,-0.080,98.209
11.72,136.70,-0.079,98.206
11.75,137.02,-0.079,98.202
11.78,137.34,-0.078,98.199
11.81,137.65,-0.077,98.195
11.84,137.97,-0.077,98.192
11.88,138.28,-0.076,98.188
11.91,138.60,-0.076,98.185
11.94,138.92,-0.075,98.182
11.97,139.23,-0.074,98.178
12.00,139.55,-0.074,98.175
12.03,139.86,-0.073,98.172
12.07,140.18,-0.072,98.169
12.10,140.50,-0.072,98.165
12.13,140.81,-0.071,98.162
12.16,141.13,-0.071,98.159
12.19,141.44,-0.070,98.156
12.22,141.76,-0.069,98.153
12.25,142.07,-0.069,98.150
12.29,142.39,-0.068,98.147
12.32,142.70,-0.068,98.144
12.35,143.02,-0.067,98.141
12.38,143.33,-0.066,98.138
12.41,143.65,-0.066,98.135
12.45,143.97,-0.065,98.132
12.48,144.28,-0.064,98.129
12.51,144.60,-0.063,98.126
12.54,144.92,-0.062,98.123
12.57,145.23,-0.062,98.120
12.60,145.55,-0.061,98.117
12.63,145.86,-0.061,98.114
12.67,146.18,-0.060,98.112
12.70,146.49,-0.060,98.109
12.73,146.81,-0.059,98.106
12.76,147.12,-0.059,98.104
12.79,147.44,-0.058,98.101
12.83,147.75,-0.057,98.098
12.86,148.07,-0.057,98.095
12.89,148.39,-0.056,98.093
12.92,148.70,-0.055,98.090
12.95,149.02,-0.055,98.088
12.98,149.33,-0.054,98.085
13.02,149.65,-0.053,98.083
13.05,149.96,-0.053,98.080
13.08,150.28,-0.052,98.078
13.11,150.60,-0.052,98.076
13.14,150.91,-0.051,98.073
13.17,151.23,-0.050,98.071
13.20,151.54,-0.050,98.068
13.24,151.86,-0.049,98.066
13.27,152.17,-0.049,98.064
13.30,152.49,-0.048,98.062
13.33,152.80,-0.047,98.059
13.36,153.12,-0.046,98.057
13.40,153.44,-0.046,98.055
13.43,153.75,-0.045,98.053
13.46,154.07,-0.044,98.050
13.49,154.38,-0.044,98.048
13.52,154.70,-0.043,98.046
13.55,155.01,-0.043,98.044
13.58,155.33,-0.042,98.042
13.62,155.64,-0.041,98.040
13.65,155.96,-0.040,98.037
13.68,156.28,-0.039,98.035
13.71,156.59,-0.039,98.033
13.74,156.91,-0.038,98.031
13.78,157.22,-0.038,98.029
13.81,157.54,-0.037,98.027
13.84,157.85,-0.036,98.025
13.87,158.17,-0.035,98.023
13.90,158.48,-0.035,98.021
13.93,158.80,-0.034,98.019
13.97,159.11,-0.033,98.018
14.00,159.43,-0.033,98.016
14.03,159.74,-0.032,98.014
14.06,160.06,-0.031,98.012
14.09,160.37,-0.031,98.010
14.12,160.69,-0.030,98.008
14.15,161.01,-0.029,98.006
14.19,161.32,-0.029,98.005
14.22,161.64,-0.028,98.003
14.25,161.95,-0.027,98.001
14.28,162.27,-0.026,97.999
14.31,162.58,-0.026,97.997
14.35,162.90,-0.025,97.996
14.38,163.21,-0.025,97.994
14.41,163.53,-0.024,97.992
14.44,163.84,-0.023,97.991
14.47,164.16,-0.022,97.989
14.50,164.47,-0.022,97.987
14.53,164.79,-0.021,97.986
14.57,165.10,-0.020,97.984
14.60,165.42,-0.020,97.982
14.63,165.73,-0.019,97.981
14.66,166.05,-0.018,97.979
14.69,166.37,-0.018,97.977
14.73,166.68,-0.017,97.976
14.76,167.00,-0.016,97.974
14.79,167.31,-0.015,97.973
14.82,167.63,-0.014,97.971
14.85,167.94,-0.014,97.970
14.88,168.26,-0.013,97.968
14.92,168.57,-0.012,97.967
14.95,168.89,-0.012,97.965
14.98,169.20,-0.011,97.964
15.01,169.52,-0.010,97.962
15.04,169.83,-0.010,97.961
15.07,170.15,-0.009,97.960
15.10,170.46,-0.008,97.958
15.14,170.78,-0.008,97.957
15.17,171.09,-0.007,97.955
15.20,171.41,-0.006,97.954
15.23,171.72,-0.005,97.953
15.26,172.04,-0.004,97.951
15.30,172.35,-0.004,97.950
15.33,172.67,-0.003,97.948
15.36,172.98,-0.002,97.947
15.39,173.30,-0.002,97.946
15.42,173.61,-0.001,97.944
15.45,173.93,0.000,97.943
15.48,174.24,0.001,97.942
15.52,174.56,0.001,97.940
15.55,174.87,0.002,97.939
15.58,175.19,0.002,97.938
15.61,175.50,0.003,97.936
15.64,175.82,0.004,97.935
15.68,176.14,0.004,97.934
15.71,176.45,0.005,97.932
15.74,176.77,0.006,97.931
15.77,177.08,0.007,97.930
15.80,177.40,0.007,97.928
15.83,177.71,0.008,97.927
15.87,178.03,0.009,97.926
15.90,178.34,0.010,97.924
15.93,178.66,0.010,97.923
15.96,178.97,0.011,97.922
15.99,179.29,0.011,97.921
16.02,179.60,0.012,97.919
16.05,179.92,0.013,97.918
16.09,180.23,0.013,97.917
16.12,180.54,0.014,97.916
16.15,180.86,0.015,97.914
16.18,181.17,0.016,97.913
16.21,181.49,0.016,97.912
16.25,181.80,0.017,97.911
16.28,182.12,0.017,97.909
16.31,182.44,0.018,97.908
16.34,182.75,0.019,97.907
16.37,183.07,0.019,97.906
16.40,183.38,0.020,97.905
16.43,183.70,0.021,97.903
16.47,184.01,0.022,97.902
16.50,184.33,0.022,97.901
16.53,184.64,0.023,97.900
16.56,184.96,0.023,97.898
16.59,185.27,0.024,97.897
16.63,185.59,0.025,97.896
16.66,185.90,0.026,97.895
16.69,186.21,0.027,97.893
16.72,186.53,0.028,97.892
16.75,186.84,0.028,97.891
16.78,187.16,0.029,97.890
16.82,187.48,0.030,97.888
16.85,187.79,0.030,97.887
16.88,188.10,0.031,97.886
16.91,188.42,0.031,97.885
16.94,188.74,0.032,97.884
16.97,189.05,0.033,97.882
17.00,189.37,0.034,97.881
17.04,189.68,0.035,97.880
17.07,190.00,0.035,97.878
17.10,190.31,0.036,97.877
17.13,190.63,0.036,97.876
17.16,190.94,0.037,97.874
17.19,191.26,0.038,97.873
17.23,191.57,0.039,97.872
17.26,191.89,0.040,97.871
17.29,192.20,0.040,97.869
17.32,192.52,0.041,97.868
17.35,192.83,0.041,97.867
17.38,193.15,0.042,97.865
17.42,193.46,0.043,97.864
17.45,193.78,0.043,97.863
17.48,194.09,0.044,97.861
17.51,194.41,0.045,97.860
17.54,194.72,0.045,97.858
17.58,195.04,0.046,97.857
17.61,195.35,0.047,97.856
17.64,195.67,0.048,97.854
17.67,195.98,0.048,97.853
17.70,196.30,0.049,97.852
17.73,196.61,0.050,97.850
17.77,196.93,0.050,97.849
17.80,197.24,0.051,97.847
17.83,197.56,0.051,97.846
17.86,197.87,0.052,97.845
17.89,198.19,0.053,97.843
17.92,198.50,0.054,97.842
17.96,198.82,0.054,97.840
17.99,199.13,0.055,97.839
18.02,199.45,0.056,97.837
18.05,199.76,0.056,97.836
18.08,200.08,0.057,97.835
18.11,200.39,0.057,97.833
18.14,200.71,0.058,97.832
18.18,201.02,0.059,97.830
18.21,201.34,0.059,97.828
18.24,201.66,0.060,97.827
18.27,201.97,0.061,97.825
18.30,202.29,0.061,97.824
18.33,202.60,0.062,97.822
18.37,202.92,0.063,97.820
18.40,203.23,0.063,97.819
18.43,203.55,0.064,97.817
18.46,203.86,0.065,97.816
18.49,204.18,0.065,97.814
18.53,204.49,0.066,97.812
18.56,204.81,0.067,97.811
18.59,205.12,0.067,97.809
18.62,205.44,0.068,97.807
18.65,205.76,0.068,97.806
18.68,206.07,0.069,97.804
18.72,206.39,0.069,97.802
18.75,206.70,0.070,97.800
18.78,207.02,0.071,97.799
18.81,207.33,0.071,97.797
18.84,207.65,0.072,97.795
18.87,207.96,0.072,97.793
18.91,208.28,0.073,97.791
18.94,208.60,0.074,97.789
18.97,208.91,0.075,97.788
19.00,209.23,0.075,97.786
19.03,209.54,0.076,97.784
19.06,209.86,0.077,97.782
19.09,210.17,0.078,97.780
19.13,210.49,0.078,97.778
19.16,210.81,0.079,97.776
19.19,211.12,0.079,97.774
19.22,211.44,0.080,97.772
19.25,211.75,0.080,97.769
19.28,212.07,0.081,97.767
19.32,212.38,0.082,97.765
19.35,212.70,0.083,97.763
19.38,213.01,0.083,97.761
19.41,213.33,0.084,97.759
19.44,213.64,0.084,97.757
19.48,213.96,0.085,97.754
19.51,214.27,0.085,97.752
19.54,214.59,0.086,97.750
19.57,214.91,0.086,97.747
19.60,215.22,0.087,97.745
19.63,215.54,0.088,97.743
19.67,215.85,0.088,97.740
19.70,216.17,0.089,97.738
19.73,216.49,0.090,97.736
19.76,216.80,0.091,97.733
19.79,217.12,0.091,97.731
19.82,217.43,0.092,97.728
19.86,217.75,0.093,97.726
19.89,218.06,0.093,97.723
19.92,218.38,0.094,97.720
19.95,218.69,0.094,97.718
19.98,219.01,0.095,97.715
20.01,219.32,0.096,97.712
20.04,219.64,0.097,97.709
20.08,219.96,0.097,97.707
20.11,220.27,0.098,97.704
20.14,220.59,0.099,97.701
20.17,220.90,0.099,97.698
20.20,221.22,0.100,97.695
20.23,221.53,0.101,97.692
20.27,221.85,0.101,97.689
20.30,222.16,0.102,97.686
20.33,222.48,0.102,97.683
20.36,222.79,0.103,97.680
20.39,223.11,0.104,97.677
20.43,223.43,0.105,97.674
20.46,223.74,0.105,97.671
20.49,224.06,0.106,97.667
20.52,224.37,0.107,97.664
20.55,224.69,0.107,97.661
20.58,225.00,0.108,97.657
20.62,225.32,0.108,97.654
20.65,225.63,0.109,97.650
20.68,225.95,0.110,97.647
20.71,226.26,0.111,97.643
20.74,226.58,0.111,97.640
20.77,226.90,0.112,97.636
20.81,227.21,0.113,97.632
20.84,227.53,0.113,97.628
20.87,227.84,0.114,97.624
20.90,228.16,0.115,97.621
20.93,228.47,0.116,97.617
20.96,228.79,0.116,97.613
20.99,229.10,0.117,97.608
21.03,229.42,0.118,97.604
21.06,229.73,0.119,97.600
21.09,230.05,0.119,97.596
21.12,230.37,0.120,97.592
21.15,230.68,0.121,97.587
21.18,231.00,0.121,97.583
21.22,231.31,0.122,97.578
21.25,231.63,0.123,97.574
21.28,231.94,0.124,97.569
21.31,232.26,0.125,97.564
21.34,232.57,0.126,97.560
21.38,232.89,0.126,97.555
21.41,233.20,0.127,97.550
21.44,233.52,0.128,97.545
21.47,233.83,0.128,97.540
21.50,234.15,0.129,97.535
21.53,234.46,0.129,97.529
21.57,234.78,0.130,97.524
21.60,235.10,0.131,97.519
21.63,235.41,0.132,97.513
21.66,235.73,0.132,97.508
21.69,236.04,0.133,97.502
21.72,236.36,0.135,97.497
21.76,236.67,0.136,97.491
21.79,236.99,0.136,97.485
21.82,237.30,0.137,97.479
21.85,237.62,0.138,97.473
21.88,237.94,0.138,97.467
21.91,238.25,0.139,97.460
21.94,238.57,0.140,97.454
21.98,238.88,0.141,97.447
22.01,239.20,0.141,97.441
22.04,239.51,0.142,97.434
22.07,239.83,0.143,97.427
22.10,240.15,0.144,97.420
22.13,240.46,0.144,97.413
22.17,240.78,0.145,97.406
22.20,241.09,0.146,97.399
22.23,241.41,0.147,97.392
22.26,241.72,0.147,97.384
22.29,242.04,0.148,97.377
22.33,242.36,0.149,97.369
22.36,242.67,0.150,97.361
22.39,242.99,0.151,97.353
22.42,243.31,0.152,97.345
22.45,243.62,0.152,97.337
22.48,243.94,0.153,97.328
22.52,244.25,0.153,97.320
22.55,244.57,0.154,97.311
22.58,244.88,0.155,97.302
22.61,245.20,0.156,97.293
22.64,245.52,0.157,97.284
22.67,245.83,0.157,97.275
22.71,246.15,0.158,97.265
22.74,246.46,0.159,97.255
22.77,246.78,0.160,97.246
22.80,247.10,0.160,97.236
22.83,247.41,0.161,97.226
22.86,247.73,0.162,97.215
22.89,248.04,0.163,97.205
22.93,248.36,0.164,97.194
22.96,248.67,0.165,97.183
22.99,248.99,0.166,97.172
23.02,249.31,0.167,97.161
23.05,249.62,0.167,97.149
23.08,249.94,0.168,97.138
23.12,250.25,0.169,97.126
23.15,250.57,0.169,97.114
23.18,250.88,0.170,97.101
23.21,251.20,0.171,97.089
23.24,251.52,0.172,97.076
23.28,251.83,0.173,97.063
23.31,252.15,0.174,97.050
23.34,252.46,0.175,97.036
23.37,252.78,0.175,97.023
23.40,253.09,0.176,97.009
23.43,253.41,0.177,96.994
23.47,253.73,0.178,96.980
23.50,254.04,0.179,96.965
23.53,254.36,0.179,96.950
23.56,254.67,0.180,96.935
23.59,254.99,0.181,96.920
23.62,255.31,0.182,96.904
23.66,255.62,0.183,96.888
23.69,255.94,0.184,96.871
23.72,256.25,0.185,96.855
23.75,256.57,0.186,96.838
23.78,256.88,0.187,96.821
23.81,257.20,0.188,96.803
23.84,257.52,0.189,96.785
23.88,257.83,0.189,96.767
23.91,258.15,0.190,96.748
23.94,258.46,0.191,96.729
23.97,258.78,0.192,96.709
24.00,259.10,0.193,96.688
24.03,259.41,0.194,96.666
24.07,259.73,0.195,96.644
24.10,260.04,0.195,96.621
24.13,260.36,0.196,96.597
24.16,260.68,0.197,96.572
24.19,260.99,0.198,96.548
24.23,261.31,0.199,96.523
24.26,261.63,0.200,96.496
24.29,261.94,0.201,96.469
24.32,262.26,0.202,96.441
24.35,262.57,0.203,96.413
24.38,262.89,0.204,96.385
24.42,263.21,0.205,96.356
24.45,263.52,0.206,96.327
24.48,263.84,0.207,96.297
24.51,264.15,0.208,96.268
24.54,264.47,0.209,96.237
24.57,264.79,0.210,96.206
24.61,265.10,0.211,96.174
24.64,265.42,0.212,96.142
24.67,265.74,0.213,96.109
24.70,266.05,0.214,96.076
24.73,266.37,0.215,96.042
24.76,266.68,0.216,96.008
24.79,267.00,0.216,95.973
24.83,267.32,0.217,95.938
24.86,267.63,0.218,95.902
24.89,267.95,0.219,95.865
24.92,268.26,0.220,95.828
24.95,268.58,0.221,95.789
24.98,268.90,0.222,95.750
25.02,269.21,0.223,95.710
25.05,269.53,0.224,95.671
25.08,269.85,0.225,95.631
25.11,270.16,0.226,95.591
25.14,270.48,0.227,95.551
25.18,270.79,0.228,95.510
25.21,271.11,0.229,95.469
25.24,271.43,0.230,95.426
25.27,271.74,0.231,95.384
25.30,272.06,0.232,95.341
25.33,272.38,0.234,95.298
25.37,272.69,0.235,95.254
25.40,273.01,0.236,95.209
25.43,273.33,0.237,95.163
25.46,273.64,0.238,95.117
25.49,273.96,0.239,95.071
25.52,274.28,0.241,95.024
25.56,274.59,0.242,94.976
25.59,274.91,0.243,94.928
25.62,275.23,0.244,94.879
25.65,275.54,0.245,94.829
25.68,275.86,0.247,94.779
25.71,276.18,0.248,94.728
25.74,276.49,0.249,94.676
25.78,276.81,0.250,94.624
25.81,277.13,0.252,94.571
25.84,277.44,0.253,94.518
25.87,277.76,0.254,94.464
25.90,278.08,0.255,94.410
25.93,278.39,0.256,94.354
25.97,278.71,0.258,94.298
26.00,279.03,0.259,94.242
26.03,279.34,0.260,94.184
26.06,279.66,0.261,94.126
26.09,279.98,0.263,94.068
26.13,280.30,0.264,94.008
26.16,280.61,0.265,93.948
26.19,280.93,0.266,93.888
26.22,281.24,0.267,93.826
26.25,281.56,0.268,93.764
26.28,281.88,0.270,93.702
26.32,282.20,0.271,93.639
26.35,282.51,0.273,93.575
26.38,282.83,0.274,93.510
26.41,283.14,0.275,93.445
26.44,283.46,0.276,93.379
26.47,283.78,0.278,93.312
26.51,284.09,0.279,93.245
26.54,284.41,0.281,93.177
26.57,284.73,0.282,93.108
26.60,285.05,0.284,93.039
26.63,285.36,0.285,92.969
26.66,285.68,0.286,92.898
26.69,286.00,0.288,92.827
26.73,286.31,0.289,92.755
26.76,286.63,0.290,92.683
26.79,286.95,0.291,92.610
26.82,287.27,0.293,92.536
26.85,287.58,0.294,92.462
26.88,287.90,0.296,92.387
26.92,288.22,0.297,92.311
26.95,288.53,0.299,92.235
26.98,288.85,0.300,92.158
27.01,289.17,0.301,92.080
27.04,289.48,0.302,92.002
27.08,289.80,0.304,91.924
27.11,290.12,0.305,91.844
27.14,290.44,0.307,91.765
27.17,290.75,0.308,91.684
27.20,291.07,0.310,91.603
27.23,291.39,0.311,91.521
27.27,291.70,0.313,91.439
27.30,292.02,0.314,91.356
27.33,292.34,0.316,91.273
27.36,292.66,0.317,91.189
27.39,292.97,0.319,91.105
27.42,293.29,0.320,91.020
27.46,293.61,0.322,90.934
27.49,293.93,0.323,90.847
27.52,294.24,0.324,90.760
27.55,294.56,0.326,90.672
27.58,294.88,0.327,90.584
27.61,295.19,0.329,90.496
27.64,295.51,0.330,90.406
27.68,295.83,0.332,90.316
27.71,296.15,0.334,90.225
27.74,296.46,0.335,90.134
27.77,296.78,0.336,90.041
27.80,297.10,0.338,89.948
27.83,297.42,0.340,89.855
27.87,297.73,0.341,89.761
27.90,298.05,0.343,89.666
27.93,298.37,0.345,89.571
27.96,298.69,0.346,89.475
27.99,299.00,0.348,89.377
28.03,299.32,0.349,89.279
28.06,299.64,0.351,89.181
28.09,299.96,0.352,89.082
28.12,300.27,0.354,88.982
28.15,300.59,0.356,88.880
28.18,300.91,0.357,88.778
28.22,301.23,0.359,88.675
28.25,301.54,0.361,88.571
28.28,301.86,0.362,88.467
28.31,302.18,0.364,88.361
28.34,302.50,0.365,88.254
28.37,302.81,0.367,88.146
28.41,303.13,0.368,88.037
28.44,303.45,0.370,87.926
28.47,303.77,0.372,87.815
28.50,304.09,0.374,87.702
28.53,304.40,0.376,87.588
28.56,304.72,0.378,87.473
28.59,305.04,0.379,87.356
28.63,305.36,0.381,87.239
28.66,305.68,0.382,87.120
28.69,305.99,0.384,86.999
28.72,306.31,0.386,86.877
28.75,306.63,0.388,86.754
28.78,306.95,0.390,86.628
28.82,307.26,0.392,86.501
28.85,307.58,0.394,86.373
28.88,307.90,0.396,86.243
28.91,308.22,0.398,86.111
28.94,308.54,0.399,85.977
28.98,308.86,0.401,85.841
29.01,309.17,0.403,85.704
29.04,309.49,0.405,85.564
29.07,309.81,0.407,85.422
29.10,310.13,0.409,85.279
29.13,310.45,0.411,85.133
29.17,310.76,0.413,84.985
29.20,311.08,0.415,84.835
29.23,311.40,0.417,84.683
29.26,311.72,0.419,84.528
29.29,312.04,0.421,84.371
29.32,312.36,0.423,84.212
29.36,312.68,0.426,84.049
29.39,312.99,0.428,83.885
29.42,313.31,0.430,83.718
29.45,313.63,0.432,83.548
29.48,313.95,0.434,83.375
29.51,314.27,0.437,83.200
29.54,314.59,0.439,83.022
29.58,314.90,0.441,82.841
29.61,315.22,0.444,82.657
29.64,315.54,0.446,82.470
29.67,315.86,0.449,82.280
29.70,316.18,0.451,82.087
29.73,316.50,0.454,81.891
29.77,316.82,0.456,81.692
29.80,317.14,0.459,81.490
29.83,317.45,0.462,81.285
29.86,317.77,0.464,81.077
29.89,318.09,0.467,80.866
29.93,318.41,0.470,80.651
29.96,318.73,0.473,80.433
29.99,319.05,0.476,80.213
30.02,319.37,0.479,79.989
30.05,319.69,0.482,79.762
30.08,320.01,0.485,79.533
30.12,320.33,0.489,79.300
30.15,320.65,0.492,79.064
30.18,320.97,0.496,78.825
30.21,321.29,0.500,78.583
30.24,321.61,0.504,78.338
30.27,321.93,0.508,78.091
30.31,322.25,0.512,77.841
30.34,322.57,0.516,77.589
30.37,322.89,0.520,77.334
30.40,323.21,0.524,77.076
30.43,323.53,0.529,76.817
30.46,323.86,0.534,76.556
30.49,324.18,0.539,76.292
30.53,324.50,0.544,76.028
30.56,324.82,0.549,75.761
30.59,325.14,0.555,75.493
30.62,325.47,0.560,75.224
30.65,325.79,0.566,74.954
30.68,326.11,0.573,74.684
30.72,326.44,0.579,74.413
30.75,326.76,0.586,74.143
30.78,327.09,0.593,73.873
30.81,327.41,0.600,73.603
30.84,327.73,0.607,73.334
30.88,328.06,0.614,73.066
30.91,328.38,0.622,72.800
30.94,328.71,0.631,72.536
30.97,329.04,0.639,72.274
31.00,329.36,0.648,72.013
31.03,329.69,0.657,71.756
31.07,330.02,0.667,71.501
31.10,330.35,0.676,71.250
31.13,330.67,0.686,71.002
31.16,331.00,0.696,70.759
31.19,331.33,0.706,70.520
31.22,331.66,0.717,70.285
31.26,331.99,0.727,70.054
31.29,332.32,0.738,69.829
31.32,332.64,0.748,69.609
31.35,332.97,0.759,69.394
31.38,333.30,0.769,69.185
31.41,333.63,0.780,68.982
31.44,333.96,0.791,68.785
31.48,334.29,0.801,68.593
31.51,334.62,0.811,68.406
31.54,334.94,0.822,68.224
31.57,335.27,0.832,68.048
31.60,335.60,0.842,67.878
31.63,335.93,0.852,67.715
31.67,336.25,0.861,67.557
31.70,336.58,0.870,67.405
31.73,336.91,0.879,67.257
31.76,337.23,0.887,67.114
31.79,337.56,0.896,66.976
31.83,337.89,0.904,66.844
31.86,338.21,0.912,66.715
31.89,338.54,0.920,66.592
31.92,338.86,0.928,66.474
31.95,339.19,0.935,66.360
31.98,339.51,0.943,66.249
32.02,339.83,0.950,66.144
32.05,340.16,0.957,66.042
32.08,340.48,0.964,65.944
32.11,340.80,0.971,65.849
32.14,341.13,0.978,65.757
32.17,341.45,0.985,65.669
32.21,341.78,0.992,65.584
32.24,342.10,1.000,65.502
32.27,342.42,1.007,65.423
32.30,342.75,1.016,65.346
32.33,343.08,1.024,65.272
32.36,343.40,1.033,65.200
32.39,343.73,1.043,65.129
32.43,344.05,1.052,65.061
32.46,344.38,1.062,64.995
32.49,344.71,1.073,64.931
32.52,345.04,1.083,64.869
32.55,345.36,1.094,64.808
32.58,345.69,1.105,64.749
32.62,346.02,1.115,64.691
32.65,346.35,1.126,64.636
32.68,346.68,1.138,64.582
32.71,347.01,1.149,64.528
32.74,347.34,1.161,64.476
32.78,347.66,1.172,64.425
32.81,347.99,1.183,64.376
32.84,348.32,1.194,64.328
32.87,348.65,1.206,64.281
32.90,348.98,1.217,64.234
32.93,349.31,1.229,64.188
32.97,349.64,1.242,64.143
33.00,349.97,1.255,64.098
33.03,350.30,1.268,64.054
33.06,350.63,1.282,64.010
33.09,350.97,1.297,63.967
33.12,351.30,1.313,63.923
33.16,351.63,1.329,63.881
33.19,351.97,1.345,63.838
33.22,352.30,1.363,63.795
33.25,352.64,1.380,63.753
33.28,352.98,1.399,63.710
33.31,353.31,1.417,63.668
33.34,353.65,1.436,63.626
33.38,353.99,1.454,63.583
33.41,354.33,1.473,63.541
33.44,354.67,1.492,63.499
33.47,355.00,1.510,63.457
33.50,355.34,1.528,63.414
33.53,355.68,1.545,63.372
33.57,356.01,1.562,63.330
33.60,356.34,1.578,63.288
33.63,356.68,1.593,63.247
33.66,357.01,1.607,63.205
33.69,357.34,1.621,63.164
33.73,357.67,1.633,63.122
33.76,358.00,1.645,63.081
33.79,358.33,1.656,63.040
33.82,358.66,1.666,62.999
33.85,358.98,1.675,62.958
33.88,359.31,1.683,62.917
33.92,359.63,1.690,62.877
33.95,359.95,1.696,62.837
33.98,360.28,1.702,62.796
34.01,360.60,1.707,62.756
34.04,360.92,1.711,62.716
34.07,361.24,1.714,62.676
34.11,361.55,1.717,62.636
34.14,361.87,1.719,62.596
34.17,362.19,1.721,62.557
34.20,362.50,1.722,62.517
34.23,362.82,1.723,62.477
34.26,363.13,1.723,62.438
34.29,363.45,1.723,62.398
34.33,363.76,1.723,62.358
34.36,364.08,1.723,62.319
34.39,364.39,1.722,62.280
34.42,364.70,1.720,62.240
34.45,365.02,1.717,62.201
34.49,365.33,1.715,62.161
34.52,365.64,1.713,62.122
34.55,365.95,1.711,62.083
34.58,366.27,1.709,62.043
34.61,366.58,1.707,62.004
34.64,366.89,1.704,61.965
34.68,367.20,1.701,61.926
34.71,367.51,1.698,61.887
34.74,367.82,1.696,61.847
34.77,368.14,1.693,61.808
34.80,368.45,1.691,61.769
34.83,368.76,1.688,61.729
34.86,369.07,1.686,61.690
34.90,369.39,1.684,61.651
34.93,369.70,1.681,61.612
34.96,370.01,1.679,61.573
34.99,370.32,1.676,61.533
35.02,370.63,1.674,61.494
35.06,370.95,1.672,61.455
35.09,371.26,1.670,61.415
35.12,371.57,1.667,61.376
35.15,371.89,1.666,61.336
35.18,372.20,1.664,61.296
35.21,372.51,1.662,61.256
35.24,372.83,1.661,61.216
35.28,373.14,1.659,61.177
35.31,373.46,1.658,61.137
35.34,373.77,1.657,61.097
35.37,374.08,1.655,61.057
35.40,374.40,1.654,61.017
35.44,374.71,1.652,60.977
35.47,375.03,1.651,60.937
35.50,375.34,1.650,60.897
35.53,375.66,1.649,60.857
35.56,375.97,1.648,60.817
35.59,376.29,1.647,60.776
35.63,376.60,1.646,60.736
35.66,376.92,1.645,60.695
35.69,377.23,1.644,60.655
35.72,377.55,1.643,60.614
35.75,377.86,1.643,60.573
35.78,378.18,1.642,60.533
35.81,378.50,1.642,60.492
35.85,378.81,1.641,60.451
35.88,379.13,1.641,60.411
35.91,379.44,1.640,60.370
35.94,379.76,1.640,60.329
35.97,380.08,1.639,60.289
36.01,380.39,1.639,60.247
36.04,380.71,1.638,60.206
36.07,381.02,1.638,60.165
36.10,381.34,1.638,60.124
36.13,381.65,1.637,60.083
36.16,381.97,1.637,60.042
36.19,382.29,1.636,60.001
36.23,382.60,1.636,59.960
36.26,382.92,1.636,59.919
36.29,383.24,1.636,59.878
36.32,383.55,1.635,59.837
36.35,383.87,1.634,59.796
36.39,384.18,1.634,59.754
36.42,384.50,1.634,59.713
36.45,384.82,1.634,59.672
36.48,385.13,1.634,59.631
36.51,385.45,1.633,59.590
36.54,385.77,1.633,59.548
36.58,386.08,1.633,59.507
36.61,386.40,1.633,59.466
36.64,386.71,1.632,59.425
36.67,387.03,1.632,59.384
36.70,387.35,1.632,59.343
36.73,387.66,1.632,59.301
36.76,387.98,1.631,59.260
36.80,388.30,1.631,59.219
36.83,388.61,1.631,59.178
36.86,388.93,1.631,59.137
36.89,389.24,1.631,59.096
36.92,389.56,1.631,59.055
36.96,389.88,1.631,59.014
36.99,390.19,1.631,58.972
37.02,390.51,1.631,58.931
37.05,390.83,1.631,58.890
37.08,391.14,1.631,58.848
37.11,391.46,1.630,58.807
37.14,391.78,1.630,58.766
37.18,392.09,1.630,58.725
37.21,392.41,1.631,58.683
37.24,392.72,1.631,58.642
37.27,393.04,1.630,58.601
37.30,393.36,1.630,58.561
37.34,393.67,1.630,58.520
37.37,393.99,1.630,58.479
37.40,394.31,1.630,58.438
37.43,394.62,1.630,58.397
37.46,394.94,1.631,58.356
37.49,395.25,1.631,58.315
37.53,395.57,1.631,58.275
37.56,395.89,1.631,58.234
37.59,396.20,1.631,58.193
37.62,396.52,1.631,58.153
37.65,396.84,1.632,58.112
37.68,397.15,1.632,58.071
37.71,397.47,1.632,58.030
37.75,397.79,1.632,57.990
37.78,398.10,1.632,57.949
37.81,398.42,1.633,57.908
37.84,398.74,1.633,57.868
37.87,399.05,1.633,57.828
37.91,399.37,1.633,57.787
37.94,399.69,1.633,57.746
37.97,400.00,1.634,57.706
38.00,400.32,1.634,57.666
38.03,400.64,1.634,57.625
38.06,400.95,1.634,57.585
38.09,401.27,1.634,57.544
38.13,401.59,1.634,57.504
38.16,401.90,1.634,57.464
38.19,402.22,1.634,57.423
38.22,402.54,1.634,57.382
38.25,402.85,1.634,57.342
38.29,403.17,1.634,57.301
38.32,403.49,1.634,57.261
38.35,403.81,1.634,57.221
38.38,404.12,1.635,57.181
38.41,404.44,1.635,57.140
38.44,404.76,1.635,57.100
38.48,405.07,1.635,57.060
38.51,405.39,1.635,57.021
38.54,405.71,1.635,56.980
38.57,406.02,1.635,56.940
38.60,406.34,1.635,56.900
38.63,406.66,1.635,56.860
38.66,406.97,1.635,56.821
38.70,407.29,1.635,56.781
38.73,407.61,1.635,56.741
38.76,407.92,1.636,56.702
38.79,408.24,1.636,56.662
38.82,408.56,1.635,56.623
38.86,408.88,1.635,56.584
38.89,409.19,1.636,56.544
38.92,409.51,1.636,56.504
38.95,409.83,1.636,56.465
38.98,410.15,1.636,56.426
39.01,410.46,1.636,56.387
39.04,410.78,1.636,56.348
39.08,411.09,1.636,56.308
39.11,411.41,1.636,56.269
39.14,411.73,1.636,56.230
39.17,412.04,1.636,56.191
39.20,412.36,1.636,56.152
39.24,412.68,1.636,56.113
39.27,412.99,1.635,56.075
39.30,413.31,1.635,56.036
39.33,413.63,1.635,55.998
39.36,413.94,1.635,55.959
39.39,414.26,1.635,55.920
39.43,414.58,1.634,55.882
39.46,414.89,1.634,55.843
39.49,415.21,1.634,55.805
39.52,415.52,1.634,55.767
39.55,415.84,1.633,55.729
39.58,416.16,1.633,55.690
39.61,416.47,1.633,55.652
39.65,416.79,1.632,55.615
39.68,417.11,1.632,55.577
39.71,417.42,1.631,55.539
39.74,417.74,1.631,55.501
39.77,418.05,1.630,55.463
39.81,418.37,1.630,55.425
39.84,418.69,1.629,55.387
39.87,419.00,1.628,55.349
39.90,419.32,1.628,55.311
39.93,419.64,1.627,55.273
39.96,419.95,1.627,55.236
39.99,420.27,1.626,55.198
40.03,420.58,1.625,55.161
40.06,420.90,1.624,55.123
40.09,421.22,1.623,55.086
40.12,421.53,1.623,55.048
40.15,421.85,1.622,55.010
40.19,422.16,1.621,54.973
40.22,422.48,1.620,54.936
40.25,422.79,1.619,54.899
40.28,423.11,1.618,54.862
40.31,423.42,1.617,54.824
40.34,423.74,1.616,54.787
40.38,424.06,1.615,54.750
40.41,424.37,1.614,54.714
40.44,424.69,1.613,54.677
40.47,425.00,1.612,54.640
40.50,425.32,1.611,54.602
40.53,425.63,1.610,54.565
40.56,425.95,1.609,54.528
40.60,426.27,1.608,54.491
40.63,426.58,1.606,54.454
40.66,426.90,1.605,54.417
40.69,427.21,1.604,54.381
40.72,427.53,1.603,54.344
40.76,427.84,1.602,54.307
40.79,428.16,1.600,54.269
40.82,428.47,1.599,54.232
40.85,428.79,1.597,54.196
40.88,429.11,1.596,54.159
40.91,429.42,1.594,54.122
40.94,429.74,1.593,54.085
40.98,430.05,1.592,54.048
41.01,430.37,1.591,54.011
41.04,430.68,1.589,53.975
41.07,431.00,1.588,53.938
41.10,431.31,1.586,53.901
41.14,431.63,1.585,53.864
41.17,431.94,1.583,53.828
41.20,432.26,1.582,53.791
41.23,432.57,1.580,53.754
41.26,432.89,1.579,53.717
41.29,433.20,1.577,53.680
41.33,433.52,1.575,53.643
41.36,433.83,1.574,53.606
41.39,434.15,1.572,53.569
41.42,434.46,1.570,53.532
41.45,434.78,1.568,53.495
41.48,435.09,1.567,53.458
41.51,435.41,1.565,53.421
41.55,435.72,1.563,53.384
41.58,436.04,1.562,53.347
41.61,436.35,1.560,53.310
41.64,436.67,1.559,53.273
41.67,436.98,1.557,53.235
41.71,437.30,1.555,53.198
41.74,437.61,1.553,53.161
41.77,437.93,1.551,53.124
41.80,438.24,1.549,53.087
41.83,438.56,1.547,53.049
41.86,438.87,1.546,53.011
41.89,439.19,1.544,52.974
41.93,439.50,1.543,52.937
41.96,439.82,1.542,52.899
41.99,440.13,1.540,52.861
42.02,440.45,1.538,52.823
42.05,440.76,1.536,52.785
42.09,441.08,1.534,52.747
42.12,441.39,1.532,52.709
42.15,441.71,1.530,52.671
42.18,442.02,1.529,52.633
42.21,442.34,1.527,52.595
42.24,442.65,1.525,52.557
42.28,442.97,1.523,52.518
42.31,443.28,1.522,52.479
42.34,443.60,1.520,52.439
42.37,443.91,1.518,52.399
42.40,444.23,1.517,52.360
42.43,444.54,1.515,52.320
42.46,444.86,1.514,52.280
42.50,445.18,1.512,52.241
42.53,445.49,1.511,52.201
42.56,445.81,1.509,52.161
42.59,446.12,1.507,52.121
42.62,446.43,1.506,52.081
42.66,446.75,1.504,52.041
42.69,447.07,1.502,52.002
42.72,447.38,1.501,51.962
42.75,447.70,1.500,51.921
42.78,448.01,1.498,51.881
42.81,448.33,1.497,51.841
42.84,448.64,1.495,51.800
42.88,448.96,1.494,51.759
42.91,449.27,1.492,51.719
42.94,449.59,1.490,51.678
42.97,449.90,1.489,51.636
43.00,450.22,1.488,51.594
43.04,450.54,1.487,51.553
43.07,450.85,1.485,51.511
43.10,451.17,1.484,51.469
43.13,451.48,1.483,51.427
43.16,451.80,1.482,51.385
43.19,452.11,1.481,51.343
43.23,452.43,1.479,51.300
43.26,452.75,1.478,51.258
43.29,453.06,1.477,51.216
43.32,453.38,1.476,51.173
43.35,453.69,1.475,51.130
43.38,454.01,1.473,51.087
43.41,454.32,1.472,51.044
43.45,454.64,1.471,51.000
43.48,454.96,1.470,50.956
43.51,455.27,1.469,50.912
43.54,455.59,1.469,50.868
43.57,455.90,1.467,50.823
43.61,456.22,1.465,50.778
43.64,456.53,1.463,50.733
43.67,456.85,1.461,50.688
43.70,457.16,1.459,50.643
43.73,457.48,1.458,50.597
43.76,457.79,1.457,50.551
43.79,458.11,1.455,50.504
43.83,458.42,1.455,50.458
43.86,458.74,1.454,50.411
43.89,459.06,1.453,50.364
43.92,459.37,1.452,50.317
43.95,459.69,1.452,50.269
43.99,460.01,1.452,50.221
44.02,460.32,1.451,50.173
44.05,460.64,1.451,50.125
44.08,460.96,1.451,50.076
44.11,461.27,1.451,50.025
44.14,461.59,1.452,49.974
44.18,461.91,1.452,49.923
44.21,462.23,1.452,49.872
44.24,462.54,1.453,49.822
44.27,462.86,1.453,49.749
44.30,463.18,1.453,49.661
44.33,463.50,1.455,49.576
44.36,463.82,1.457,49.524
44.40,464.14,1.461,49.477
44.43,464.46,1.464,49.428
44.46,464.78,1.467,49.377
44.49,465.10,1.469,49.325
44.52,465.42,1.472,49.272
44.56,465.74,1.475,49.218
44.59,466.06,1.478,49.163
44.62,466.38,1.481,49.108
44.65,466.70,1.483,49.053
44.68,467.02,1.485,48.998
44.71,467.34,1.488,48.942
44.74,467.66,1.490,48.887
44.78,467.97,1.492,48.831
44.81,468.29,1.494,48.774
44.84,468.61,1.497,48.717
44.87,468.93,1.499,48.659
44.90,469.25,1.501,48.601
44.94,469.57,1.504,48.543
44.97,469.89,1.505,48.486
45.00,470.21,1.507,48.427
45.03,470.53,1.509,48.367
45.06,470.85,1.512,48.306
45.09,471.17,1.515,48.244
45.13,471.49,1.519,48.183
45.16,471.81,1.522,48.121
45.19,472.12,1.525,48.060
45.22,472.44,1.528,47.998
45.25,472.76,1.531,47.936
45.28,473.08,1.534,47.873
45.31,473.40,1.537,47.809
45.35,473.73,1.542,47.745
45.38,474.05,1.546,47.680
45.41,474.37,1.551,47.614
45.44,474.69,1.555,47.547
45.47,475.01,1.560,47.480
45.51,475.33,1.565,47.412
45.54,475.65,1.570,47.340
45.57,475.97,1.575,47.265
45.60,476.30,1.581,47.194
45.63,476.62,1.586,47.127
45.66,476.94,1.591,47.058
45.69,477.26,1.597,46.986
45.73,477.58,1.602,46.915
45.76,477.91,1.608,46.843
45.79,478.23,1.613,46.772
45.82,478.55,1.619,46.699
45.85,478.88,1.626,46.626
45.89,479.20,1.632,46.552
45.92,479.52,1.639,46.477
45.95,479.85,1.646,46.401
45.98,480.17,1.652,46.324
46.01,480.49,1.659,46.247
46.04,480.82,1.666,46.170
46.08,481.14,1.672,46.094
46.11,481.46,1.679,46.016
46.14,481.79,1.685,45.938
46.17,482.11,1.691,45.860
46.20,482.43,1.698,45.781
46.23,482.76,1.704,45.700
46.26,483.08,1.711,45.615
46.30,483.41,1.719,45.529
46.33,483.73,1.726,45.445
46.36,484.05,1.732,45.363
46.39,484.38,1.739,45.281
46.42,484.70,1.745,45.199
46.46,485.02,1.751,45.115
46.49,485.34,1.756,45.031
46.52,485.67,1.762,44.946
46.55,485.99,1.767,44.861
46.58,486.31,1.773,44.775
46.61,486.63,1.778,44.689
46.64,486.95,1.783,44.603
46.68,487.28,1.788,44.516
46.71,487.60,1.793,44.429
46.74,487.92,1.798,44.342
46.77,488.24,1.803,44.255
46.80,488.56,1.807,44.169
46.84,488.88,1.812,44.081
46.87,489.20,1.816,43.994
46.90,489.53,1.821,43.906
46.93,489.85,1.825,43.817
46.96,490.17,1.830,43.728
46.99,490.49,1.834,43.639
47.03,490.81,1.839,43.549
47.06,491.13,1.844,43.460
47.09,491.45,1.848,43.370
47.12,491.77,1.853,43.280
47.15,492.09,1.857,43.189
47.18,492.42,1.862,43.098
47.21,492.74,1.866,43.007
47.25,493.06,1.871,42.915
47.28,493.38,1.875,42.824
47.31,,,42.732
47.34,,,42.655