File: data/DSC-TGA/231027/uncoated.csv
Filename,MLCS 8485 uncoated
Instrument name,SDT 1 LEFT (192.168.0.183)
Operator,dAA
rundate,10/24/2023
Sample name,MLCS 8485 uncoated
proceduresegments,Data Off ; Select Gas: Gas 2 ; Balance Flow 100 mL/min; Mass Flow  100.00 mL/min; Isothermal 10.0 min; Data On ; Ramp 10.00 °C/min to 500.00 °C; Data Off
[step]
Ramp 10.00 °C/min to 500.00 °C
Time,Temperature,Heat Flow (Normalized),Weight
min,°C,W/g,%
0.00,23.02,-0.044,98.458
0.03,23.02,-0.043,98.455
0.07,23.02,-0.043,98.452
0.10,23.02,-0.043,98.448
0.13,23.02,-0.043,98.445
0.17,23.02,-0.043,98.442
0.20,23.03,-0.042,98.438
0.23,23.03,-0.042,98.435
0.27,23.04,-0.042,98.432
0.30,23.05,-0.042,98.429
0.33,23.07,-0.041,98.425
0.37,23.10,-0.041,98.422
0.40,23.14,-0.041,98.419
0.43,23.19,-0.040,98.416
0.47,23.24,-0.040,98.413
0.50,23.31,-0.040,98.410
0.53,23.38,-0.040,98.407
0.57,23.47,-0.040,98.404
0.60,23.56,-0.042,98.401
0.63,23.67,-0.045,98.397
0.67,23.78,-0.050,98.394
0.70,23.91,-0.056,98.390
0.73,24.04,-0.062,98.386
0.77,24.19,-0.069,98.380
0.80,24.35,-0.078,98.373
0.83,24.51,-0.087,98.364
0.87,24.69,-0.096,98.355
0.90,24.89,-0.105,98.346
0.93,25.09,-0.114,98.337
0.97,25.31,-0.124,98.327
1.00,25.54,-0.134,98.318
1.03,25.78,-0.144,98.309
1.07,26.02,-0.154,98.300
1.10,26.28,-0.164,98.291
1.13,26.55,-0.174,98.282
1.17,26.83,-0.185,98.274
1.20,27.12,-0.195,98.267
1.23,27.41,-0.205,98.259
1.27,27.72,-0.214,98.252
1.30,28.03,-0.224,98.245
1.33,28.35,-0.234,98.238
1.37,28.68,-0.243,98.232
1.40,29.01,-0.253,98.225
1.43,29.35,-0.262,98.219
1.47,29.69,-0.272,98.212
1.50,30.04,-0.283,98.206
1.53,30.39,-0.293,98.200
1.57,30.75,-0.304,98.194
1.60,31.11,-0.316,98.188
1.63,31.47,-0.327,98.182
1.67,31.83,-0.339,98.176
1.70,32.20,-0.351,98.170
1.73,32.57,-0.362,98.164
1.77,32.94,-0.374,98.158
1.80,33.31,-0.386,98.153
1.83,33.68,-0.398,98.147
1.87,34.05,-0.410,98.142
1.90,34.43,-0.421,98.136
1.93,34.80,-0.432,98.131
1.97,35.17,-0.442,98.125
2.00,35.55,-0.453,98.119
2.03,35.92,-0.463,98.113
2.07,36.29,-0.473,98.107
2.10,36.66,-0.483,98.101
2.13,37.04,-0.492,98.095
2.17,37.41,-0.501,98.089
2.20,37.78,-0.509,98.082
2.23,38.14,-0.517,98.075
2.27,38.51,-0.525,98.068
2.30,38.87,-0.532,98.061
2.33,39.24,-0.539,98.054
2.37,39.60,-0.545,98.046
2.40,39.96,-0.550,98.038
2.43,40.32,-0.556,98.030
2.47,40.68,-0.561,98.022
2.50,41.03,-0.566,98.013
2.53,41.38,-0.571,98.004
2.57,41.74,-0.575,97.995
2.60,42.09,-0.579,97.986
2.63,42.44,-0.582,97.977
2.67,42.78,-0.585,97.967
2.70,43.13,-0.587,97.957
2.73,43.47,-0.590,97.947
2.77,43.82,-0.592,97.936
2.80,44.16,-0.594,97.926
2.83,44.49,-0.595,97.915
2.87,44.83,-0.596,97.904
2.90,45.17,-0.597,97.892
2.93,45.50,-0.597,97.881
2.97,45.84,-0.597,97.869
3.00,46.17,-0.598,97.856
3.03,46.50,-0.598,97.844
3.07,46.83,-0.597,97.831
3.10,47.16,-0.597,97.818
3.13,47.49,-0.597,97.805
3.17,47.82,-0.595,97.791
3.20,48.14,-0.594,97.777
3.23,48.47,-0.592,97.763
3.27,48.79,-0.590,97.749
3.30,49.12,-0.588,97.735
3.33,49.44,-0.586,97.720
3.37,49.77,-0.583,97.705
3.40,50.09,-0.580,97.690
3.43,50.41,-0.577,97.674
3.47,50.74,-0.574,97.659
3.50,51.06,-0.571,97.643
3.53,51.38,-0.568,97.627
3.57,51.70,-0.565,97.611
3.60,52.02,-0.562,97.594
3.63,52.35,-0.559,97.577
3.67,52.67,-0.555,97.560
3.70,52.99,-0.552,97.543
3.73,53.31,-0.549,97.526
3.77,53.63,-0.545,97.508
3.80,53.96,-0.541,97.490
3.83,54.28,-0.538,97.472
3.87,54.60,-0.535,97.454
3.90,54.92,-0.531,97.436
3.93,55.24,-0.527,97.417
3.97,55.57,-0.524,97.398
4.00,55.89,-0.521,97.379
4.03,56.21,-0.518,97.360
4.07,56.54,-0.514,97.341
4.10,56.86,-0.511,97.321
4.13,57.18,-0.508,97.302
4.17,57.51,-0.505,97.282
4.20,57.83,-0.502,97.262
4.23,58.16,-0.498,97.242
4.27,58.48,-0.495,97.221
4.30,58.81,-0.493,97.201
4.33,59.13,-0.490,97.180
4.37,59.46,-0.487,97.160
4.40,59.79,-0.484,97.139
4.43,60.11,-0.480,97.118
4.47,60.44,-0.478,97.097
4.50,60.77,-0.475,97.076
4.53,61.10,-0.472,97.054
4.57,61.42,-0.470,97.033
4.60,61.75,-0.468,97.012
4.63,62.08,-0.465,96.990
4.67,62.41,-0.462,96.968
4.70,62.74,-0.459,96.947
4.73,63.07,-0.457,96.925
4.77,63.40,-0.455,96.903
4.80,63.73,-0.453,96.881
4.83,64.06,-0.451,96.859
4.87,64.39,-0.448,96.836
4.90,64.72,-0.446,96.814
4.93,65.05,-0.443,96.792
4.97,65.38,-0.441,96.769
5.00,65.71,-0.439,96.747
5.03,66.04,-0.437,96.724
5.07,66.38,-0.435,96.702
5.10,66.71,-0.433,96.679
5.13,67.04,-0.431,96.656
5.17,67.37,-0.429,96.634
5.20,67.70,-0.427,96.611
5.23,68.04,-0.425,96.589
5.27,68.37,-0.422,96.566
5.30,68.70,-0.420,96.543
5.33,69.04,-0.418,96.521
5.37,69.37,-0.416,96.498
5.40,69.70,-0.414,96.475
5.43,70.04,-0.412,96.453
5.47,70.37,-0.410,96.430
5.50,70.71,-0.408,96.408
5.53,71.04,-0.406,96.385
5.57,71.37,-0.404,96.363
5.60,71.71,-0.402,96.341
5.63,72.04,-0.400,96.318
5.67,72.38,-0.398,96.296
5.70,72.71,-0.396,96.274
5.73,73.05,-0.393,96.252
5.77,73.38,-0.391,96.230
5.80,73.72,-0.389,96.208
5.83,74.05,-0.387,96.186
5.87,74.38,-0.385,96.164
5.90,74.72,-0.383,96.142
5.93,75.05,-0.380,96.121
5.97,75.39,-0.378,96.099
6.00,75.72,-0.376,96.078
6.03,76.06,-0.373,96.056
6.07,76.39,-0.372,96.035
6.10,76.73,-0.370,96.014
6.13,77.06,-0.368,95.993
6.17,77.40,-0.366,95.972
6.20,77.73,-0.363,95.952
6.23,78.07,-0.361,95.931
6.27,78.40,-0.358,95.910
6.30,78.74,-0.356,95.890
6.33,79.07,-0.354,95.870
6.37,79.41,-0.351,95.850
6.40,79.74,-0.349,95.830
6.43,80.08,-0.346,95.810
6.47,80.41,-0.344,95.791
6.50,80.75,-0.341,95.771
6.53,81.08,-0.339,95.752
6.57,81.42,-0.337,95.733
6.60,81.75,-0.334,95.714
6.63,82.09,-0.331,95.695
6.67,82.42,-0.329,95.676
6.70,82.75,-0.327,95.658
6.73,83.09,-0.324,95.639
6.77,83.42,-0.321,95.621
6.80,83.76,-0.318,95.603
6.83,84.09,-0.316,95.585
6.87,84.43,-0.313,95.567
6.90,84.76,-0.311,95.550
6.93,85.10,-0.308,95.533
6.97,85.43,-0.305,95.516
7.00,85.76,-0.303,95.499
7.03,86.10,-0.300,95.482
7.07,86.43,-0.298,95.466
7.10,86.77,-0.295,95.449
7.13,87.10,-0.292,95.433
7.17,87.44,-0.290,95.417
7.20,87.77,-0.287,95.402
7.23,88.10,-0.284,95.386
7.27,88.44,-0.282,95.371
7.30,88.77,-0.279,95.355
7.33,89.11,-0.276,95.340
7.37,89.44,-0.274,95.326
7.40,89.78,-0.271,95.311
7.43,90.11,-0.268,95.296
7.47,90.45,-0.265,95.282
7.50,90.78,-0.262,95.268
7.53,91.12,-0.259,95.254
7.57,91.45,-0.256,95.240
7.60,91.78,-0.254,95.227
7.63,92.12,-0.251,95.214
7.67,92.45,-0.248,95.200
7.70,92.79,-0.245,95.187
7.73,93.12,-0.242,95.175
7.77,93.46,-0.239,95.162
7.80,93.79,-0.236,95.149
7.83,94.13,-0.233,95.137
7.87,94.46,-0.231,95.125
7.90,94.80,-0.228,95.113
7.93,95.13,-0.225,95.102
7.97,95.47,-0.222,95.090
8.00,95.80,-0.219,95.079
8.03,96.14,-0.216,95.068
8.07,96.47,-0.213,95.057
8.10,96.81,-0.210,95.046
8.13,97.14,-0.207,95.035
8.17,97.48,-0.204,95.025
8.20,97.81,-0.201,95.014
8.23,98.15,-0.198,95.004
8.27,98.48,-0.195,94.994
8.30,98.82,-0.192,94.984
8.33,99.15,-0.189,94.975
8.37,99.49,-0.187,94.965
8.40,99.82,-0.183,94.956
8.43,100.16,-0.180,94.947
8.47,100.49,-0.178,94.938
8.50,100.83,-0.175,94.930
8.53,101.16,-0.172,94.921
8.57,101.50,-0.169,94.913
8.60,101.83,-0.167,94.904
8.63,102.17,-0.164,94.896
8.67,102.50,-0.161,94.888
8.70,102.84,-0.158,94.881
8.73,103.17,-0.155,94.873
8.77,103.51,-0.153,94.865
8.80,103.84,-0.150,94.858
8.83,104.18,-0.147,94.851
8.87,104.51,-0.144,94.844
8.90,104.85,-0.141,94.837
8.93,105.18,-0.139,94.830
8.97,105.52,-0.136,94.824
9.00,105.86,-0.133,94.817
9.03,106.19,-0.130,94.811
9.07,106.53,-0.127,94.805
9.10,106.86,-0.124,94.799
9.13,107.20,-0.122,94.793
9.17,107.53,-0.119,94.787
9.20,107.87,-0.116,94.781
9.23,108.20,-0.114,94.776
9.27,108.54,-0.112,94.770
9.30,108.87,-0.109,94.766
9.33,109.21,-0.107,94.761
9.37,109.54,-0.104,94.756
9.40,109.88,-0.101,94.751
9.43,110.21,-0.098,94.746
9.47,110.55,-0.097,94.742
9.50,110.88,-0.095,94.737
9.53,111.22,-0.093,94.733
9.57,111.55,-0.090,94.729
9.60,111.89,-0.088,94.725
9.63,112.23,-0.085,94.720
9.67,112.56,-0.083,94.716
9.70,112.89,-0.081,94.713
9.73,113.23,-0.079,94.709
9.77,113.56,-0.078,94.705
9.80,113.90,-0.076,94.702
9.83,114.23,-0.074,94.698
9.87,114.57,-0.072,94.695
9.90,114.90,-0.069,94.691
9.93,115.23,-0.067,94.688
9.97,115.57,-0.065,94.685
10.00,115.90,-0.063,94.682
10.03,116.24,-0.061,94.679
10.07,116.57,-0.059,94.676
10.10,116.91,-0.057,94.673
10.13,117.24,-0.056,94.671
10.17,117.57,-0.054,94.668
10.20,117.91,-0.052,94.665
10.23,118.24,-0.050,94.663
10.27,118.58,-0.048,94.660
10.30,118.91,-0.046,94.658
10.33,119.24,-0.044,94.656
10.37,119.58,-0.043,94.653
10.40,119.91,-0.041,94.651
10.43,120.25,-0.040,94.649
10.47,120.58,-0.038,94.647
10.50,120.91,-0.037,94.645
10.53,121.25,-0.035,94.643
10.57,121.58,-0.034,94.642
10.60,121.91,-0.032,94.640
10.63,122.25,-0.030,94.638
10.67,122.58,-0.029,94.637
10.70,122.91,-0.028,94.635
10.73,123.25,-0.027,94.633
10.77,123.58,-0.024,94.632
10.80,123.92,-0.023,94.630
10.83,124.25,-0.022,94.629
10.87,124.58,-0.020,94.628
10.90,124.91,-0.019,94.626
10.93,125.25,-0.018,94.625
10.97,125.58,-0.017,94.624
11.00,125.91,-0.015,94.623
11.03,126.25,-0.015,94.621
11.07,126.58,-0.014,94.620
11.10,126.91,-0.013,94.619
11.13,127.24,-0.012,94.618
11.17,127.58,-0.011,94.617
11.20,127.91,-0.010,94.616
11.23,128.24,-0.009,94.615
11.27,128.57,-0.008,94.614
11.30,128.91,-0.007,94.613
11.33,129.24,-0.007,94.612
11.37,129.57,-0.006,94.611
11.40,129.91,-0.005,94.610
11.43,130.24,-0.003,94.609
11.47,130.57,-0.002,94.609
11.50,130.90,-0.001,94.608
11.53,131.23,0.000,94.607
11.57,131.57,0.000,94.606
11.60,131.90,0.001,94.605
11.63,132.23,0.002,94.605
11.67,132.56,0.002,94.604
11.70,132.89,0.003,94.603
11.73,133.23,0.004,94.602
11.77,133.56,0.004,94.602
11.80,133.89,0.005,94.601
11.83,134.22,0.006,94.600
11.87,134.55,0.006,94.600
11.90,134.88,0.007,94.599
11.93,135.22,0.007,94.599
11.97,135.55,0.008,94.598
12.00,135.88,0.008,94.597
12.03,136.21,0.009,94.597
12.07,136.54,0.010,94.596
12.10,136.88,0.010,94.596
12.13,137.21,0.011,94.595
12.17,137.54,0.012,94.594
12.20,137.87,0.012,94.594
12.23,138.20,0.013,94.593
12.27,138.53,0.013,94.593
12.30,138.87,0.014,94.592
12.33,139.20,0.014,94.591
12.37,139.53,0.015,94.591
12.40,139.86,0.015,94.590
12.43,140.19,0.015,94.590
12.47,140.52,0.016,94.589
12.50,140.86,0.016,94.589
12.53,141.19,0.017,94.588
12.57,141.52,0.017,94.588
12.60,141.85,0.018,94.587
12.63,142.19,0.018,94.587
12.67,142.52,0.019,94.587
12.70,142.85,0.019,94.586
12.73,143.18,0.019,94.585
12.77,143.51,0.020,94.585
12.80,143.84,0.020,94.584
12.83,144.17,0.020,94.584
12.87,144.51,0.021,94.583
12.90,144.84,0.021,94.583
12.93,145.17,0.021,94.582
12.97,145.50,0.021,94.582
13.00,145.83,0.022,94.581
13.03,146.16,0.022,94.581
13.07,146.49,0.023,94.580
13.10,146.83,0.023,94.579
13.13,147.16,0.024,94.579
13.17,147.49,0.024,94.578
13.20,147.82,0.024,94.578
13.23,148.15,0.024,94.577
13.27,148.48,0.025,94.577
13.30,148.81,0.025,94.576
13.33,149.15,0.025,94.576
13.37,149.48,0.025,94.575
13.40,149.81,0.026,94.575
13.43,150.14,0.026,94.574
13.47,150.47,0.026,94.574
13.50,150.80,0.027,94.573
13.53,151.13,0.027,94.572
13.57,151.46,0.027,94.572
13.60,151.79,0.028,94.571
13.63,152.13,0.028,94.571
13.67,152.46,0.028,94.570
13.70,152.79,0.029,94.569
13.73,153.12,0.029,94.569
13.77,153.45,0.029,94.568
13.80,153.78,0.030,94.567
13.83,154.11,0.030,94.567
13.87,154.45,0.031,94.566
13.90,154.78,0.031,94.566
13.93,155.11,0.032,94.565
13.97,155.44,0.032,94.564
14.00,155.77,0.032,94.564
14.03,156.10,0.033,94.563
14.07,156.43,0.033,94.562
14.10,156.76,0.033,94.562
14.13,157.09,0.034,94.561
14.17,157.42,0.034,94.561
14.20,157.75,0.034,94.561
14.23,158.09,0.034,94.561
14.27,158.42,0.035,94.560
14.30,158.75,0.035,94.560
14.33,159.08,0.035,94.560
14.37,159.41,0.036,94.559
14.40,159.74,0.036,94.559
14.43,160.07,0.036,94.558
14.47,160.40,0.036,94.558
14.50,160.73,0.037,94.557
14.53,161.07,0.037,94.557
14.57,161.40,0.037,94.556
14.60,161.73,0.038,94.555
14.63,162.06,0.038,94.555
14.67,162.39,0.039,94.554
14.70,162.72,0.039,94.553
14.73,163.05,0.040,94.552
14.77,163.38,0.040,94.551
14.80,163.72,0.041,94.551
14.83,164.05,0.041,94.550
14.87,164.38,0.041,94.549
14.90,164.71,0.042,94.548
14.93,165.04,0.042,94.547
14.97,165.37,0.043,94.546
15.00,165.70,0.043,94.545
15.03,166.03,0.044,94.544
15.07,166.36,0.044,94.543
15.10,166.69,0.044,94.543
15.13,167.03,0.045,94.542
15.17,167.36,0.045,94.541
15.20,167.69,0.046,94.540
15.23,168.02,0.046,94.539
15.27,168.35,0.047,94.538
15.30,168.68,0.047,94.537
15.33,169.01,0.048,94.536
15.37,169.34,0.049,94.535
15.40,169.68,0.049,94.534
15.43,170.01,0.049,94.533
15.47,170.34,0.050,94.532
15.50,170.67,0.050,94.531
15.53,171.00,0.051,94.529
15.57,171.33,0.051,94.528
15.60,171.66,0.052,94.527
15.63,171.99,0.052,94.526
15.67,172.32,0.053,94.525
15.70,172.65,0.053,94.524
15.73,172.98,0.054,94.523
15.77,173.32,0.054,94.522
15.80,173.65,0.055,94.521
15.83,173.98,0.055,94.520
15.87,174.31,0.056,94.519
15.90,174.64,0.056,94.517
15.93,174.97,0.057,94.516
15.97,175.30,0.058,94.515
16.00,175.63,0.059,94.514
16.03,175.96,0.059,94.513
16.07,176.30,0.060,94.511
16.10,176.63,0.061,94.510
16.13,176.96,0.062,94.509
16.17,177.29,0.062,94.508
16.20,177.62,0.063,94.506
16.23,177.95,0.064,94.505
16.27,178.28,0.064,94.504
16.30,178.62,0.064,94.502
16.33,178.95,0.065,94.501
16.37,179.28,0.066,94.500
16.40,179.61,0.066,94.498
16.43,179.94,0.067,94.497
16.47,180.27,0.067,94.496
16.50,180.60,0.068,94.494
16.53,180.93,0.068,94.493
16.57,181.26,0.069,94.492
16.60,181.59,0.070,94.490
16.63,181.92,0.070,94.489
16.67,182.25,0.071,94.488
16.70,182.59,0.072,94.486
16.73,182.92,0.073,94.485
16.77,183.25,0.074,94.484
16.80,183.58,0.074,94.482
16.83,183.91,0.075,94.481
16.87,184.24,0.076,94.479
16.90,184.57,0.076,94.478
16.93,184.90,0.077,94.476
16.97,185.23,0.078,94.475
17.00,185.56,0.078,94.474
17.03,185.90,0.079,94.472
17.07,186.23,0.080,94.470
17.10,186.56,0.080,94.469
17.13,186.89,0.081,94.467
17.17,187.22,0.082,94.466
17.20,187.55,0.083,94.464
17.23,187.88,0.083,94.463
17.27,188.21,0.084,94.461
17.30,188.54,0.085,94.459
17.33,188.87,0.085,94.458
17.37,189.21,0.086,94.456
17.40,189.54,0.086,94.454
17.43,189.87,0.087,94.453
17.47,190.20,0.088,94.451
17.50,190.53,0.089,94.450
17.53,190.86,0.089,94.448
17.57,191.19,0.090,94.446
17.60,191.52,0.091,94.444
17.63,191.85,0.092,94.442
17.67,192.19,0.092,94.441
17.70,192.52,0.093,94.439
17.73,192.85,0.094,94.437
17.77,193.18,0.095,94.435
17.80,193.51,0.095,94.434
17.83,193.84,0.096,94.432
17.87,194.17,0.097,94.430
17.90,194.50,0.097,94.428
17.93,194.83,0.098,94.426
17.97,195.17,0.099,94.425
18.00,195.50,0.099,94.423
18.03,195.83,0.100,94.421
18.07,196.16,0.101,94.419
18.10,196.49,0.102,94.417
18.13,196.82,0.103,94.415
18.17,197.16,0.104,94.413
18.20,197.49,0.104,94.411
18.23,197.82,0.105,94.409
18.27,198.15,0.106,94.407
18.30,198.48,0.107,94.405
18.33,198.81,0.107,94.403
18.37,199.14,0.108,94.401
18.40,199.48,0.109,94.399
18.43,199.81,0.110,94.397
18.47,200.14,0.111,94.395
18.50,200.47,0.112,94.392
18.53,200.80,0.113,94.390
18.57,201.13,0.114,94.388
18.60,201.47,0.114,94.386
18.63,201.80,0.115,94.383
18.67,202.13,0.116,94.381
18.70,202.46,0.116,94.379
18.73,202.79,0.117,94.377
18.77,203.12,0.117,94.374
18.80,203.46,0.118,94.372
18.83,203.79,0.119,94.370
18.87,204.12,0.119,94.367
18.90,204.45,0.120,94.365
18.93,204.78,0.121,94.362
18.97,205.12,0.122,94.360
19.00,205.45,0.123,94.357
19.03,205.78,0.123,94.355
19.07,206.11,0.124,94.352
19.10,206.44,0.125,94.350
19.13,206.78,0.126,94.347
19.17,207.11,0.127,94.344
19.20,207.44,0.127,94.342
19.23,207.77,0.129,94.339
19.27,208.10,0.130,94.336
19.30,208.44,0.130,94.334
19.33,208.77,0.131,94.331
19.37,209.10,0.132,94.328
19.40,209.43,0.133,94.325
19.43,209.77,0.134,94.322
19.47,210.10,0.135,94.319
19.50,210.43,0.136,94.316
19.53,210.76,0.137,94.313
19.57,211.09,0.137,94.310
19.60,211.43,0.138,94.307
19.63,211.76,0.139,94.303
19.67,212.09,0.140,94.300
19.70,212.42,0.141,94.297
19.73,212.75,0.141,94.294
19.77,213.09,0.143,94.290
19.80,213.42,0.144,94.287
19.83,213.75,0.145,94.284
19.87,214.08,0.145,94.280
19.90,214.42,0.146,94.277
19.93,214.75,0.147,94.273
19.97,215.08,0.148,94.270
20.00,215.41,0.149,94.266
20.03,215.74,0.151,94.263
20.07,216.08,0.152,94.259
20.10,216.41,0.153,94.255
20.13,216.74,0.154,94.251
20.17,217.07,0.155,94.248
20.20,217.40,0.156,94.244
20.23,217.74,0.156,94.240
20.27,218.07,0.158,94.236
20.30,218.40,0.158,94.232
20.33,218.73,0.159,94.228
20.37,219.06,0.160,94.223
20.40,219.39,0.161,94.219
20.43,219.73,0.162,94.215
20.47,220.06,0.163,94.211
20.50,220.39,0.164,94.206
20.53,220.72,0.165,94.202
20.57,221.05,0.166,94.197
20.60,221.39,0.167,94.193
20.63,221.72,0.168,94.188
20.67,222.05,0.169,94.183
20.70,222.38,0.170,94.179
20.73,222.71,0.171,94.174
20.77,223.05,0.172,94.169
20.80,223.38,0.173,94.164
20.83,223.71,0.174,94.159
20.87,224.04,0.175,94.153
20.90,224.37,0.176,94.148
20.93,224.70,0.177,94.143
20.97,225.04,0.178,94.137
21.00,225.37,0.179,94.132
21.03,225.70,0.180,94.126
21.07,226.03,0.181,94.121
21.10,226.37,0.182,94.115
21.13,226.70,0.183,94.109
21.17,227.03,0.184,94.103
21.20,227.36,0.185,94.097
21.23,227.69,0.187,94.091
21.27,228.02,0.188,94.085
21.30,228.36,0.189,94.078
21.33,228.69,0.190,94.072
21.37,229.02,0.191,94.065
21.40,229.35,0.192,94.059
21.43,229.68,0.193,94.052
21.47,230.02,0.194,94.045
21.50,230.35,0.196,94.038
21.53,230.68,0.197,94.031
21.57,231.01,0.198,94.024
21.60,231.34,0.199,94.017
21.63,231.68,0.200,94.010
21.67,232.01,0.201,94.002
21.70,232.34,0.202,93.994
21.73,232.67,0.203,93.987
21.77,233.01,0.204,93.979
21.80,233.34,0.206,93.971
21.83,233.67,0.207,93.963
21.87,234.00,0.210,93.954
21.90,234.34,0.211,93.946
21.93,234.67,0.213,93.937
21.97,235.00,0.213,93.928
22.00,235.33,0.214,93.919
22.03,235.66,0.215,93.910
22.07,236.00,0.216,93.901
22.10,236.33,0.217,93.892
22.13,236.66,0.219,93.882
22.17,236.99,0.220,93.873
22.20,237.32,0.221,93.863
22.23,237.66,0.222,93.853
22.27,237.99,0.223,93.843
22.30,238.32,0.225,93.833
22.33,238.65,0.226,93.822
22.37,238.99,0.227,93.811
22.40,239.32,0.229,93.800
22.43,239.65,0.230,93.789
22.47,239.98,0.231,93.778
22.50,240.32,0.233,93.766
22.53,240.65,0.234,93.755
22.57,240.98,0.235,93.743
22.60,241.31,0.236,93.731
22.63,241.65,0.238,93.719
22.67,241.98,0.239,93.706
22.70,242.31,0.240,93.693
22.73,242.64,0.241,93.680
22.77,242.97,0.242,93.667
22.80,243.31,0.243,93.654
22.83,243.64,0.245,93.640
22.87,243.97,0.246,93.626
22.90,244.30,0.248,93.612
22.93,244.64,0.249,93.598
22.97,244.97,0.250,93.583
23.00,245.30,0.251,93.568
23.03,245.63,0.253,93.553
23.07,245.97,0.254,93.537
23.10,246.30,0.255,93.521
23.13,246.63,0.257,93.505
23.17,246.96,0.259,93.489
23.20,247.30,0.260,93.472
23.23,247.63,0.261,93.455
23.27,247.96,0.263,93.438
23.30,248.29,0.264,93.421
23.33,248.63,0.266,93.403
23.37,248.96,0.267,93.385
23.40,249.29,0.268,93.366
23.43,249.62,0.270,93.348
23.47,249.96,0.272,93.328
23.50,250.29,0.273,93.309
23.53,250.62,0.275,93.289
23.57,250.95,0.276,93.269
23.60,251.29,0.277,93.249
23.63,251.62,0.279,93.228
23.67,251.95,0.281,93.206
23.70,252.28,0.283,93.185
23.73,252.62,0.284,93.163
23.77,252.95,0.286,93.140
23.80,253.28,0.287,93.118
23.83,253.61,0.289,93.095
23.87,253.95,0.291,93.071
23.90,254.28,0.292,93.047
23.93,254.61,0.294,93.023
23.97,254.95,0.295,92.998
24.00,255.28,0.296,92.973
24.03,255.61,0.298,92.947
24.07,255.94,0.300,92.921
24.10,256.28,0.302,92.894
24.13,256.61,0.304,92.867
24.17,256.95,0.307,92.840
24.20,257.28,0.309,92.812
24.23,257.61,0.310,92.783
24.27,257.94,0.312,92.754
24.30,258.28,0.313,92.725
24.33,258.61,0.315,92.695
24.37,258.94,0.316,92.664
24.40,259.27,0.318,92.632
24.43,259.61,0.320,92.598
24.47,259.94,0.322,92.565
24.50,260.28,0.324,92.530
24.53,260.61,0.327,92.493
24.57,260.94,0.329,92.456
24.60,261.28,0.331,92.419
24.63,261.61,0.333,92.380
24.67,261.94,0.335,92.340
24.70,262.27,0.337,92.299
24.73,262.61,0.339,92.257
24.77,262.94,0.341,92.214
24.80,263.27,0.343,92.170
24.83,263.61,0.345,92.126
24.87,263.94,0.348,92.081
24.90,264.28,0.350,92.034
24.93,264.61,0.352,91.987
24.97,264.94,0.355,91.939
25.00,265.28,0.357,91.891
25.03,265.61,0.359,91.842
25.07,265.94,0.362,91.793
25.10,266.28,0.364,91.744
25.13,266.61,0.367,91.694
25.17,266.94,0.370,91.642
25.20,267.28,0.372,91.590
25.23,267.61,0.374,91.537
25.27,267.94,0.376,91.483
25.30,268.28,0.379,91.428
25.33,268.61,0.381,91.374
25.37,268.94,0.383,91.318
25.40,269.28,0.386,91.262
25.43,269.61,0.390,91.205
25.47,269.94,0.392,91.147
25.50,270.28,0.394,91.088
25.53,270.61,0.397,91.029
25.57,270.95,0.400,90.969
25.60,271.28,0.403,90.908
25.63,271.61,0.406,90.846
25.67,271.95,0.409,90.784
25.70,272.28,0.412,90.721
25.73,272.62,0.415,90.656
25.77,272.95,0.417,90.591
25.80,273.28,0.420,90.526
25.83,273.62,0.423,90.460
25.87,273.95,0.426,90.392
25.90,274.29,0.428,90.323
25.93,274.62,0.431,90.252
25.97,274.95,0.434,90.182
26.00,275.29,0.437,90.111
26.03,275.62,0.440,90.038
26.07,275.96,0.443,89.965
26.10,276.29,0.446,89.890
26.13,276.62,0.450,89.815
26.17,276.96,0.453,89.739
26.20,277.29,0.456,89.662
26.23,277.63,0.459,89.584
26.27,277.96,0.462,89.504
26.30,278.30,0.466,89.424
26.33,278.63,0.469,89.342
26.37,278.97,0.473,89.260
26.40,279.30,0.476,89.177
26.43,279.64,0.480,89.093
26.47,279.97,0.483,89.007
26.50,280.31,0.487,88.921
26.53,280.64,0.490,88.833
26.57,280.98,0.494,88.743
26.60,281.31,0.497,88.654
26.63,281.65,0.501,88.562
26.67,281.98,0.505,88.470
26.70,282.31,0.509,88.376
26.73,282.65,0.512,88.281
26.77,282.98,0.516,88.186
26.80,283.32,0.520,88.089
26.83,283.66,0.524,87.990
26.87,283.99,0.527,87.890
26.90,284.33,0.531,87.789
26.93,284.66,0.535,87.688
26.97,285.00,0.539,87.584
27.00,285.33,0.543,87.479
27.03,285.67,0.548,87.373
27.07,286.00,0.552,87.266
27.10,286.34,0.557,87.157
27.13,286.67,0.561,87.046
27.17,287.01,0.565,86.935
27.20,287.34,0.570,86.822
27.23,287.68,0.574,86.708
27.27,288.01,0.578,86.592
27.30,288.35,0.583,86.475
27.33,288.69,0.587,86.356
27.37,289.02,0.591,86.236
27.40,289.36,0.596,86.113
27.43,289.69,0.601,85.990
27.47,290.03,0.606,85.865
27.50,290.36,0.611,85.739
27.53,290.70,0.616,85.610
27.57,291.04,0.621,85.481
27.60,291.37,0.627,85.350
27.63,291.71,0.631,85.217
27.67,292.04,0.636,85.082
27.70,292.38,0.641,84.946
27.73,292.72,0.646,84.808
27.77,293.05,0.651,84.667
27.80,293.39,0.657,84.525
27.83,293.72,0.662,84.382
27.87,294.06,0.668,84.236
27.90,294.40,0.673,84.088
27.93,294.73,0.679,83.938
27.97,295.07,0.684,83.787
28.00,295.41,0.690,83.633
28.03,295.74,0.695,83.478
28.07,296.08,0.701,83.321
28.10,296.42,0.707,83.161
28.13,296.76,0.713,82.999
28.17,297.09,0.720,82.835
28.20,297.43,0.726,82.668
28.23,297.77,0.732,82.499
28.27,298.10,0.738,82.328
28.30,298.44,0.745,82.154
28.33,298.78,0.751,81.978
28.37,299.12,0.758,81.798
28.40,299.45,0.764,81.616
28.43,299.79,0.770,81.432
28.47,300.13,0.778,81.245
28.50,300.47,0.785,81.055
28.53,300.80,0.791,80.862
28.57,301.14,0.798,80.666
28.60,301.48,0.806,80.467
28.63,301.82,0.813,80.264
28.67,302.16,0.821,80.058
28.70,302.50,0.829,79.849
28.73,302.84,0.837,79.636
28.77,303.17,0.845,79.420
28.80,303.51,0.852,79.200
28.83,303.85,0.860,78.977
28.87,304.19,0.868,78.749
28.90,304.53,0.877,78.518
28.93,304.87,0.886,78.282
28.97,305.21,0.894,78.041
29.00,305.55,0.903,77.796
29.03,305.89,0.912,77.547
29.07,306.23,0.922,77.292
29.10,306.57,0.931,77.033
29.13,306.91,0.941,76.768
29.17,307.25,0.950,76.498
29.20,307.59,0.960,76.222
29.23,307.93,0.970,75.941
29.27,308.27,0.980,75.654
29.30,308.61,0.990,75.360
29.33,308.96,1.001,75.060
29.37,309.30,1.012,74.753
29.40,309.64,1.023,74.439
29.43,309.98,1.034,74.119
29.47,310.32,1.045,73.790
29.50,310.67,1.057,73.454
29.53,311.01,1.070,73.110
29.57,311.35,1.083,72.758
29.60,311.70,1.096,72.397
29.63,312.04,1.109,72.028
29.67,312.39,1.123,71.649
29.70,312.73,1.137,71.261
29.73,313.07,1.151,70.864
29.77,313.42,1.166,70.456
29.80,313.77,1.181,70.039
29.83,314.11,1.196,69.612
29.87,314.46,1.212,69.173
29.90,314.80,1.228,68.722
29.93,315.15,1.245,68.259
29.97,315.50,1.262,67.785
30.00,315.85,1.280,67.297
30.03,316.19,1.298,66.796
30.07,316.54,1.317,66.282
30.10,316.89,1.336,65.754
30.13,317.24,1.357,65.211
30.17,317.59,1.378,64.654
30.20,317.94,1.400,64.082
30.23,318.29,1.422,63.496
30.27,318.65,1.445,62.894
30.30,319.00,1.470,62.276
30.33,319.35,1.494,61.641
30.37,319.70,1.520,60.989
30.40,320.06,1.547,60.320
30.43,320.41,1.575,59.634
30.47,320.77,1.604,58.931
30.50,321.13,1.635,58.209
30.53,321.49,1.667,57.469
30.57,321.85,1.701,56.712
30.60,322.21,1.736,55.937
30.63,322.57,1.772,55.144
30.67,322.93,1.809,54.333
30.70,323.29,1.849,53.502
30.73,323.66,1.891,52.654
30.77,324.02,1.934,51.791
30.80,324.39,1.980,50.916
30.83,324.76,2.028,50.026
30.87,325.13,2.079,49.124
30.90,325.50,2.132,48.211
30.93,325.88,2.188,47.288
30.97,326.25,2.248,46.358
31.00,326.63,2.311,45.423
31.03,327.01,2.379,44.489
31.07,327.39,2.451,43.559
31.10,327.78,2.529,42.634
31.13,328.17,2.611,41.718
31.17,328.57,2.699,40.816
31.20,328.97,2.793,39.933
31.23,329.37,2.892,39.075
31.27,329.77,2.997,38.247
31.30,330.18,3.107,37.454
31.33,330.60,3.223,36.698
31.37,331.01,3.346,35.985
31.40,331.43,3.473,35.315
31.43,331.86,3.606,34.691
31.47,332.28,3.742,34.110
31.50,332.71,3.882,33.573
31.53,333.14,4.024,33.077
31.57,333.57,4.167,32.620
31.60,334.00,4.313,32.198
31.63,334.43,4.459,31.810
31.67,334.87,4.603,31.452
31.70,335.30,4.745,31.124
31.73,335.73,4.883,30.821
31.77,336.16,5.015,30.541
31.80,336.59,5.143,30.281
31.83,337.02,5.265,30.040
31.87,337.44,5.384,29.816
31.90,337.86,5.501,29.607
31.93,338.28,5.614,29.412
31.97,338.69,5.722,29.230
32.00,339.10,5.826,29.059
32.03,339.51,5.924,28.897
32.07,339.91,6.017,28.745
32.10,340.30,6.105,28.602
32.13,340.70,6.187,28.466
32.17,341.09,6.265,28.337
32.20,341.47,6.336,28.214
32.23,341.85,6.402,28.097
32.27,342.22,6.462,27.985
32.30,342.60,6.517,27.877
32.33,342.96,6.567,27.774
32.37,343.32,6.612,27.675
32.40,343.68,6.652,27.579
32.43,344.04,6.688,27.487
32.47,344.39,6.719,27.398
32.50,344.74,6.746,27.313
32.53,345.09,6.769,27.230
32.57,345.43,6.788,27.149
32.60,345.77,6.803,27.071
32.63,346.11,6.815,26.994
32.67,346.45,6.823,26.919
32.70,346.78,6.828,26.846
32.73,347.11,6.831,26.776
32.77,347.44,6.831,26.708
32.80,347.77,6.828,26.640
32.83,348.09,6.822,26.573
32.87,348.41,6.813,26.508
32.90,348.73,6.802,26.444
32.93,349.05,6.789,26.381
32.97,349.37,6.775,26.320
33.00,349.69,6.759,26.260
33.03,350.01,6.741,26.200
33.07,350.32,6.721,26.142
33.10,350.64,6.700,26.085
33.13,350.95,6.678,26.028
33.17,351.26,6.654,25.972
33.20,351.57,6.629,25.917
33.23,351.88,6.603,25.863
33.27,352.19,6.576,25.810
33.30,352.50,6.548,25.757
33.33,352.81,6.519,25.705
33.37,353.12,6.490,25.653
33.40,353.43,6.459,25.602
33.43,353.73,6.428,25.552
33.47,354.04,6.396,25.502
33.50,354.34,6.364,25.453
33.53,354.65,6.331,25.405
33.57,354.96,6.298,25.356
33.60,355.26,6.264,25.308
33.63,355.57,6.230,25.260
33.67,355.87,6.196,25.213
33.70,356.18,6.161,25.167
33.73,356.48,6.126,25.122
33.77,356.79,6.091,25.076
33.80,357.09,6.055,25.031
33.83,357.40,6.019,24.986
33.87,357.70,5.983,24.943
33.90,358.01,5.948,24.899
33.93,358.31,5.912,24.855
33.97,358.62,5.877,24.812
34.00,358.93,5.841,24.770
34.03,359.23,5.806,24.727
34.07,359.54,5.770,24.685
34.10,359.84,5.735,24.643
34.13,360.15,5.699,24.602
34.17,360.46,5.664,24.561
34.20,360.76,5.629,24.520
34.23,361.07,5.594,24.479
34.27,361.38,5.559,24.438
34.30,361.68,5.524,24.398
34.33,361.99,5.489,24.358
34.37,362.30,5.455,24.318
34.40,362.61,5.421,24.278
34.43,362.91,5.387,24.238
34.47,363.22,5.354,24.199
34.50,363.53,5.321,24.159
34.53,363.84,5.288,24.119
34.57,364.15,5.255,24.080
34.60,364.46,5.222,24.040
34.63,364.77,5.190,24.001
34.67,365.08,5.159,23.963
34.70,365.39,5.127,23.925
34.73,365.70,5.096,23.886
34.77,366.01,5.064,23.848
34.80,366.32,5.034,23.810
34.83,366.63,5.004,23.771
34.87,366.94,4.974,23.733
34.90,367.25,4.945,23.695
34.93,367.57,4.916,23.657
34.97,367.88,4.887,23.619
35.00,368.19,4.858,23.582
35.03,368.50,4.830,23.545
35.07,368.82,4.802,23.507
35.10,369.13,4.775,23.469
35.13,369.44,4.748,23.432
35.17,369.76,4.721,23.395
35.20,370.07,4.694,23.358
35.23,370.38,4.667,23.321
35.27,370.70,4.641,23.284
35.30,371.01,4.616,23.247
35.33,371.33,4.590,23.210
35.37,371.64,4.565,23.173
35.40,371.96,4.540,23.137
35.43,372.28,4.516,23.100
35.47,372.59,4.492,23.063
35.50,372.91,4.468,23.026
35.53,373.22,4.444,22.990
35.57,373.54,4.421,22.953
35.60,373.86,4.398,22.917
35.63,374.17,4.376,22.881
35.67,374.49,4.353,22.845
35.70,374.81,4.332,22.809
35.73,375.13,4.311,22.772
35.77,375.44,4.290,22.735
35.80,375.76,4.268,22.699
35.83,376.08,4.247,22.663
35.87,376.40,4.226,22.627
35.90,376.71,4.205,22.591
35.93,377.03,4.185,22.555
35.97,377.35,4.166,22.518
36.00,377.67,4.147,22.482
36.03,377.99,4.128,22.446
36.07,378.31,4.109,22.410
36.10,378.63,4.090,22.373
36.13,378.95,4.072,22.337
36.17,379.27,4.053,22.301
36.20,379.59,4.035,22.266
36.23,379.91,4.018,22.229
36.27,380.23,4.001,22.194
36.30,380.55,3.984,22.158
36.33,380.87,3.967,22.122
36.37,381.19,3.950,22.086
36.40,381.52,3.934,22.050
36.43,381.84,3.918,22.014
36.47,382.16,3.902,21.978
36.50,382.48,3.886,21.942
36.53,382.80,3.871,21.905
36.57,383.12,3.855,21.869
36.60,383.44,3.840,21.833
36.63,383.77,3.825,21.797
36.67,384.09,3.811,21.761
36.70,384.41,3.796,21.725
36.73,384.74,3.782,21.689
36.77,385.06,3.768,21.653
36.80,385.38,3.755,21.618
36.83,385.71,3.741,21.582
36.87,386.03,3.728,21.545
36.90,386.35,3.715,21.509
36.93,386.68,3.702,21.472
36.97,387.00,3.690,21.436
37.00,387.33,3.678,21.400
37.03,387.65,3.666,21.365
37.07,387.97,3.654,21.328
37.10,388.30,3.643,21.292
37.13,388.62,3.631,21.255
37.17,388.95,3.619,21.219
37.20,389.27,3.608,21.183
37.23,389.60,3.597,21.146
37.27,389.92,3.587,21.110
37.30,390.25,3.576,21.073
37.33,390.57,3.566,21.036
37.37,390.90,3.556,21.000
37.40,391.23,3.546,20.964
37.43,391.55,3.536,20.928
37.47,391.88,3.527,20.892
37.50,392.21,3.517,20.855
37.53,392.53,3.508,20.818
37.57,392.86,3.499,20.781
37.60,393.18,3.490,20.744
37.63,393.51,3.481,20.707
37.67,393.84,3.472,20.671
37.70,394.16,3.464,20.635
37.73,394.49,3.456,20.599
37.77,394.82,3.448,20.562
37.80,395.15,3.440,20.525
37.83,395.47,3.432,20.487
37.87,395.80,3.424,20.450
37.90,396.13,3.417,20.412
37.93,396.46,3.410,20.375
37.97,396.79,3.403,20.337
38.00,397.11,3.396,20.300
38.03,397.44,3.389,20.263
38.07,397.77,3.382,20.225
38.10,398.10,3.376,20.188
38.13,398.43,3.370,20.150
38.17,398.76,3.364,20.112
38.20,399.08,3.358,20.075
38.23,399.41,3.352,20.038
38.27,399.74,3.347,20.000
38.30,400.07,3.342,19.962
38.33,400.40,3.337,19.924
38.37,400.73,3.331,19.886
38.40,401.06,3.326,19.849
38.43,401.39,3.321,19.811
38.47,401.72,3.317,19.772
38.50,402.05,3.312,19.733
38.53,402.38,3.308,19.694
38.57,402.71,3.304,19.656
38.60,403.04,3.300,19.618
38.63,403.37,3.297,19.579
38.67,403.71,3.293,19.540
38.70,404.04,3.289,19.501
38.73,404.37,3.286,19.462
38.77,404.70,3.283,19.423
38.80,405.03,3.280,19.385
38.83,405.36,3.277,19.346
38.87,405.69,3.274,19.307
38.90,406.03,3.271,19.268
38.93,406.36,3.268,19.228
38.97,406.69,3.266,19.188
39.00,407.02,3.263,19.148
39.03,407.35,3.262,19.108
39.07,407.68,3.260,19.068
39.10,408.02,3.259,19.029
39.13,408.35,3.258,18.988
39.17,408.68,3.257,18.948
39.20,409.02,3.256,18.908
39.23,409.35,3.255,18.867
39.27,409.68,3.254,18.827
39.30,410.02,3.253,18.786
39.33,410.35,3.252,18.745
39.37,410.68,3.252,18.704
39.40,411.02,3.252,18.663
39.43,411.35,3.252,18.621
39.47,411.68,3.252,18.580
39.50,412.02,3.252,18.538
39.53,412.35,3.252,18.496
39.57,412.68,3.252,18.454
39.60,413.02,3.253,18.412
39.63,413.35,3.253,18.370
39.67,413.68,3.254,18.327
39.70,414.02,3.254,18.285
39.73,414.35,3.255,18.242
39.77,414.69,3.256,18.199
39.80,415.02,3.257,18.156
39.83,415.36,3.259,18.113
39.87,415.69,3.261,18.069
39.90,416.02,3.263,18.026
39.93,416.36,3.265,17.982
39.97,416.69,3.268,17.938
40.00,417.03,3.271,17.895
40.03,417.36,3.274,17.850
40.07,417.70,3.277,17.806
40.10,418.04,3.281,17.761
40.13,418.37,3.284,17.716
40.17,418.71,3.288,17.671
40.20,419.04,3.292,17.626
40.23,419.38,3.297,17.580
40.27,419.71,3.301,17.534
40.30,420.05,3.306,17.488
40.33,420.39,3.310,17.443
40.37,420.72,3.315,17.397
40.40,421.06,3.320,17.350
40.43,421.40,3.326,17.303
40.47,421.73,3.331,17.256
40.50,422.07,3.337,17.209
40.53,422.41,3.343,17.161
40.57,422.75,3.349,17.113
40.60,423.08,3.356,17.065
40.63,423.42,3.362,17.017
40.67,423.76,3.369,16.968
40.70,424.10,3.376,16.919
40.73,424.43,3.383,16.870
40.77,424.77,3.390,16.821
40.80,425.11,3.397,16.772
40.83,425.45,3.405,16.722
40.87,425.79,3.413,16.672
40.90,426.13,3.421,16.622
40.93,426.47,3.430,16.571
40.97,426.81,3.439,16.519
41.00,427.15,3.448,16.468
41.03,427.49,3.458,16.416
41.07,427.83,3.467,16.365
41.10,428.16,3.477,16.313
41.13,428.51,3.487,16.260
41.17,428.85,3.497,16.208
41.20,429.19,3.508,16.155
41.23,429.53,3.518,16.102
41.27,429.87,3.529,16.048
41.30,430.21,3.539,15.994
41.33,430.55,3.551,15.939
41.37,430.89,3.562,15.884
41.40,431.23,3.574,15.829
41.43,431.57,3.587,15.774
41.47,431.91,3.599,15.718
41.50,432.26,3.612,15.662
41.53,432.60,3.626,15.605
41.57,432.94,3.639,15.547
41.60,433.28,3.653,15.490
41.63,433.63,3.667,15.433
41.67,433.97,3.682,15.374
41.70,434.31,3.696,15.315
41.73,434.66,3.712,15.256
41.77,435.00,3.727,15.196
41.80,435.34,3.743,15.136
41.83,435.69,3.760,15.075
41.87,436.03,3.777,15.013
41.90,436.38,3.794,14.952
41.93,436.72,3.811,14.890
41.97,437.07,3.828,14.827
42.00,437.41,3.846,14.764
42.03,437.76,3.865,14.700
42.07,438.11,3.885,14.636
42.10,438.45,3.904,14.571
42.13,438.80,3.924,14.505
42.17,439.15,3.944,14.438
42.20,439.49,3.966,14.370
42.23,439.84,3.987,14.303
42.27,440.19,4.009,14.235
42.30,440.54,4.032,14.167
42.33,440.89,4.055,14.098
42.37,441.24,4.078,14.028
42.40,441.58,4.102,13.958
42.43,441.93,4.127,13.887
42.47,442.28,4.152,13.815
42.50,442.64,4.178,13.742
42.53,442.99,4.205,13.668
42.57,443.34,4.232,13.593
42.60,443.69,4.260,13.518
42.63,444.04,4.289,13.442
42.67,444.40,4.318,13.365
42.70,444.75,4.349,13.288
42.73,445.10,4.380,13.209
42.77,445.46,4.412,13.129
42.80,445.81,4.444,13.049
42.83,446.17,4.478,12.967
42.87,446.53,4.512,12.885
42.90,446.88,4.547,12.801
42.93,447.24,4.583,12.715
42.97,447.60,4.619,12.630
43.00,447.96,4.656,12.544
43.03,448.32,4.695,12.457
43.07,448.68,4.734,12.368
43.10,449.04,4.775,12.278
43.13,449.40,4.817,12.186
43.17,449.76,4.860,12.088
43.20,450.12,4.901,11.986
43.23,450.48,4.942,11.889
43.27,450.84,4.982,11.801
43.30,451.20,5.023,11.713
43.33,451.56,5.065,11.621
43.37,451.92,5.108,11.528
43.40,452.28,5.151,11.434
43.43,452.64,5.196,11.338
43.47,453.01,5.242,11.240
43.50,453.37,5.289,11.141
43.53,453.74,5.339,11.039
43.57,454.10,5.391,10.936
43.60,454.47,5.444,10.831
43.63,454.84,5.500,10.724
43.67,455.21,5.558,10.616
43.70,455.58,5.619,10.506
43.73,455.96,5.682,10.393
43.77,456.33,5.747,10.278
43.80,456.71,5.815,10.162
43.83,457.09,5.887,10.042
43.87,457.47,5.961,9.920
43.90,457.86,6.039,9.794
43.93,458.24,6.119,9.667
43.97,458.63,6.203,9.537
44.00,459.03,6.294,9.404
44.03,459.43,6.395,9.268
44.07,459.83,6.497,9.125
44.10,460.23,6.595,8.980
44.13,460.63,6.693,8.836
44.17,461.03,6.801,8.694
44.20,461.45,6.925,8.541
44.23,461.88,7.068,8.371
44.27,462.33,7.231,8.183
44.30,462.79,7.412,7.982
44.33,463.25,7.603,7.775
44.37,463.71,7.796,7.569
44.40,464.17,7.985,7.367
44.43,464.62,8.171,7.166
44.47,465.08,8.353,6.968
44.50,465.52,8.528,6.773
44.53,465.96,8.692,6.583
44.57,466.39,8.844,6.399
44.60,466.81,8.982,6.221
44.63,467.22,9.107,6.048
44.67,467.62,9.217,5.879
44.70,468.01,9.311,5.716
44.73,468.39,9.389,5.558
44.77,468.75,9.450,5.406
44.80,469.11,9.494,5.259
44.83,469.45,9.525,5.116
44.87,469.79,9.545,4.977
44.90,470.12,9.553,4.840
44.93,470.44,9.552,4.706
44.97,470.76,9.542,4.575
45.00,471.07,9.524,4.447
45.03,471.38,9.498,4.321
45.07,471.68,9.462,4.198
45.10,471.97,9.414,4.079
45.13,472.25,9.361,3.966
45.17,472.55,9.309,3.857
45.20,472.83,9.256,3.747
45.23,473.12,9.191,3.635
45.27,473.39,9.113,3.524
45.30,473.65,9.023,3.422
45.33,473.91,8.925,3.326
45.37,474.17,8.824,3.236
45.40,474.43,8.725,3.149
45.43,474.69,8.632,3.062
45.47,474.95,8.539,2.971
45.50,475.20,8.427,2.874
45.53,475.43,8.286,2.785
45.57,475.66,8.130,2.713
45.60,475.88,7.969,2.653
45.63,476.10,7.806,2.598
45.67,476.32,7.644,2.543
45.70,476.54,7.484,2.488
45.73,476.76,7.326,2.432
45.77,476.99,7.170,2.377
45.80,477.22,7.016,2.323
45.83,477.45,6.865,2.271
45.87,477.68,6.717,2.220
45.90,477.92,6.572,2.170
45.93,478.16,6.430,2.121
45.97,478.40,6.294,2.074
46.00,478.64,6.161,2.027
46.03,478.89,6.034,1.980
46.07,479.15,5.910,1.935
46.10,479.40,5.792,1.890
46.13,479.66,5.678,1.846
46.17,479.93,5.568,1.801
46.20,480.19,5.464,1.757
46.23,480.47,5.364,1.712
46.27,480.74,5.268,1.669
46.30,481.02,5.177,1.625
46.33,481.30,5.089,1.581
46.37,481.58,5.005,1.537
46.40,481.87,4.925,1.494
46.43,482.16,4.849,1.451
46.47,482.45,4.775,1.408
46.50,482.74,4.704,1.365
46.53,483.04,4.636,1.322
46.57,483.34,4.572,1.280
46.60,483.63,4.509,1.238
46.63,483.94,4.450,1.195
46.67,484.24,4.393,1.153
46.70,484.54,4.339,1.112
46.73,484.85,4.287,1.070
46.77,485.16,4.237,1.029
46.80,485.47,4.189,0.988
46.83,485.78,4.142,0.947
46.87,486.09,4.098,0.907
46.90,486.40,4.054,0.867
46.93,486.72,4.014,0.827
46.97,487.03,3.982,0.787
47.00,487.36,3.955,0.745
47.03,487.68,3.924,0.700
47.07,487.99,3.887,0.655
47.10,488.30,3.844,0.615
47.13,488.61,3.797,0.578
47.17,488.92,3.745,0.546
47.20,489.22,3.686,0.515
47.23,489.51,3.622,0.486
47.27,489.80,3.552,0.458
47.30,490.09,3.476,0.430
47.33,490.38,3.396,0.403
47.37,490.66,3.312,0.376
47.40,490.94,3.224,0.349
47.43,491.22,3.134,0.324
47.47,491.49,3.042,0.299
47.50,491.77,2.949,0.276
47.53,492.04,2.856,0.253
47.57,492.32,2.762,0.232
47.60,492.59,2.669,0.212
47.63,492.87,2.577,0.193
47.67,493.15,2.485,0.175
47.70,,,0.158
47.72,,,0.146